t_rosbag_ns,stamp_sec,stamp_nanosec,frame_id,orientation_x,orientation_y,orientation_z,orientation_w,angular_velocity_x,angular_velocity_y,angular_velocity_z,linear_acceleration_x,linear_acceleration_y,linear_acceleration_z
1778601173915993008,1778601173,915731995,livox_frame,0.0,0.0,0.0,1.0,-0.011291056871414185,0.0006349813193082809,-0.001723303459584713,-0.0018572035478428006,-0.010091559961438179,0.9768399000167847
1778601173920501903,1778601173,920184216,livox_frame,0.0,0.0,0.0,1.0,-0.0017036758363246918,0.0038307737559080124,-0.001723303459584713,9.592145215719938e-05,-0.01839234121143818,0.9595059156417847
1778601173925765336,1778601173,925578421,livox_frame,0.0,0.0,0.0,1.0,0.0014921166002750397,-0.0025608129799365997,-0.001723303459584713,-0.006251734681427479,-0.01936890371143818,0.9648770093917847
1778601173930061388,1778601173,929810416,livox_frame,0.0,0.0,0.0,1.0,-0.0006384104490280151,-0.010017664171755314,-0.003853832371532917,-0.004786890931427479,-0.0020349198020994663,1.0041836500167847
1778601173935867947,1778601173,935700338,livox_frame,0.0,0.0,0.0,1.0,-0.008095262572169304,-0.006821870803833008,-0.002788567915558815,-0.002345484681427479,0.007974846288561821,1.0119961500167847
1778601173940184601,1778601173,939989220,livox_frame,0.0,0.0,0.0,1.0,-0.013421585783362389,-0.0036260774359107018,-0.003853832371532917,-0.006740015931427479,-0.0008142166770994663,0.9978359937667847
1778601173945731340,1778601173,945569174,livox_frame,0.0,0.0,0.0,1.0,-0.012356320396065712,-0.0004302840679883957,-0.002788567915558815,-0.0011247816728428006,-0.006917732302099466,0.9914883375167847
1778601173950046910,1778601173,949886370,livox_frame,0.0,0.0,0.0,1.0,-0.0070299990475177765,0.002765510231256485,-0.002788567915558815,-0.0016130629228428006,-0.013753669336438179,0.9682949781417847
1778601173955831485,1778601173,955696798,livox_frame,0.0,0.0,0.0,1.0,0.0025573819875717163,-0.004691341891884804,-0.002788567915558815,-0.002833765931427479,-0.01692749746143818,0.9707363843917847
1778601173960333138,1778601173,960035249,livox_frame,0.0,0.0,0.0,1.0,0.0025573819875717163,-0.004691341891884804,-0.002788567915558815,-0.005275172181427479,-0.01643921621143818,0.9814785718917847
1778601173965861348,1778601173,965698024,livox_frame,0.0,0.0,0.0,1.0,-0.010225791484117508,-0.0036260774359107018,-0.002788567915558815,-0.005763453431427479,0.008951408788561821,1.0054043531417847
1778601173970081887,1778601173,969950517,livox_frame,0.0,0.0,0.0,1.0,-0.010225791484117508,-0.0036260774359107018,-0.002788567915558815,-0.005763453431427479,0.008951408788561821,1.0054043531417847
1778601173975760379,1778601173,975697048,livox_frame,0.0,0.0,0.0,1.0,-0.0048994701355695724,-0.004691341891884804,-0.002788567915558815,-0.004054469056427479,-0.015218513086438179,0.9736660718917847
1778601173980108756,1778601173,979949333,livox_frame,0.0,0.0,0.0,1.0,-0.0048994701355695724,-0.004691341891884804,-0.002788567915558815,-0.004054469056427479,-0.015218513086438179,0.9736660718917847
1778601173985863101,1778601173,985702275,livox_frame,0.0,0.0,0.0,1.0,-0.0027689412236213684,-0.0014955485239624977,-0.002788567915558815,-0.005519312806427479,-0.013753669336438179,0.9748867750167847
1778601173990270975,1778601173,990106463,livox_frame,0.0,0.0,0.0,1.0,-0.0027689412236213684,-0.0014955485239624977,-0.002788567915558815,-0.005519312806427479,-0.013753669336438179,0.9748867750167847
1778601173995818115,1778601173,995562055,livox_frame,0.0,0.0,0.0,1.0,-0.0017036758363246918,-0.00788713525980711,-0.002788567915558815,-0.005275172181427479,0.00016234582290053368,1.0034512281417847
1778601173999991659,1778601173,999860679,livox_frame,0.0,0.0,0.0,1.0,-0.0017036758363246918,-0.00788713525980711,-0.002788567915558815,-0.005275172181427479,0.00016234582290053368,1.0034512281417847
1778601174005969972,1778601174,5702560,livox_frame,0.0,0.0,0.0,1.0,-0.013421585783362389,-0.0014955485239624977,-0.002788567915558815,-0.005519312806427479,0.0018713301979005337,0.9966152906417847
1778601174010368891,1778601174,9953568,livox_frame,0.0,0.0,0.0,1.0,-0.013421585783362389,-0.0014955485239624977,-0.002788567915558815,-0.005519312806427479,0.0018713301979005337,0.9966152906417847
1778601174016110290,1778601174,15726187,livox_frame,0.0,0.0,0.0,1.0,-0.0059647336602211,0.004896039143204689,-0.002788567915558815,-0.0018572035478428006,-0.01717163808643818,0.9585293531417847
1778601174020342529,1778601174,20106050,livox_frame,0.0,0.0,0.0,1.0,-0.0059647336602211,0.004896039143204689,-0.002788567915558815,-0.0018572035478428006,-0.01717163808643818,0.9585293531417847
1778601174026094267,1778601174,25713812,livox_frame,0.0,0.0,0.0,1.0,0.0025573819875717163,-0.00788713525980711,-0.002788567915558815,-0.006251734681427479,-0.0032556229270994663,0.9951504468917847
1778601174030228102,1778601174,29799199,livox_frame,0.0,0.0,0.0,1.0,0.0025573819875717163,-0.00788713525980711,-0.002788567915558815,-0.006251734681427479,-0.0032556229270994663,0.9951504468917847
1778601174036025329,1778601174,35698843,livox_frame,0.0,0.0,0.0,1.0,-0.014486849308013916,-0.0036260774359107018,-0.003853832371532917,-0.004298609681427479,0.008218986913561821,1.0085781812667847
1778601174040450157,1778601174,40024749,livox_frame,0.0,0.0,0.0,1.0,-0.014486849308013916,-0.0036260774359107018,-0.003853832371532917,-0.004298609681427479,0.008218986913561821,1.0085781812667847
1778601174046082776,1778601174,45697858,livox_frame,0.0,0.0,0.0,1.0,-0.008095262572169304,0.0017002448439598083,-0.003853832371532917,-0.0006365004228428006,-0.014486091211438179,0.9687832593917847
1778601174050322691,1778601174,49927731,livox_frame,0.0,0.0,0.0,1.0,-0.008095262572169304,0.0017002448439598083,-0.003853832371532917,-0.0006365004228428006,-0.014486091211438179,0.9687832593917847
1778601174056070612,1778601174,55699424,livox_frame,0.0,0.0,0.0,1.0,0.0025573819875717163,-0.0025608129799365997,-0.001723303459584713,-0.004542750306427479,-0.013265388086438179,0.9770840406417847
1778601174060272030,1778601174,59902482,livox_frame,0.0,0.0,0.0,1.0,0.0025573819875717163,-0.0025608129799365997,-0.001723303459584713,-0.004542750306427479,-0.013265388086438179,0.9770840406417847
1778601174065975936,1778601174,65694933,livox_frame,0.0,0.0,0.0,1.0,-0.011291056871414185,-0.006821870803833008,-0.003853832371532917,-0.005031031556427479,0.010416252538561821,1.0073574781417847
1778601174070305681,1778601174,69984052,livox_frame,0.0,0.0,0.0,1.0,-0.011291056871414185,-0.006821870803833008,-0.003853832371532917,-0.005031031556427479,0.010416252538561821,1.0073574781417847
1778601174076009113,1778601174,75698226,livox_frame,0.0,0.0,0.0,1.0,-0.0070299990475177765,-0.0036260774359107018,-0.002788567915558815,-0.007716578431427479,-0.01668335683643818,0.9756191968917847
1778601174080246391,1778601174,79797165,livox_frame,0.0,0.0,0.0,1.0,-0.0070299990475177765,-0.0036260774359107018,-0.002788567915558815,-0.007716578431427479,-0.01668335683643818,0.9756191968917847
1778601174086048982,1778601174,85696168,livox_frame,0.0,0.0,0.0,1.0,-0.003834204748272896,-0.0004302840679883957,-0.002788567915558815,-0.003810328431427479,-0.010823981836438179,0.9753750562667847
1778601174090505830,1778601174,90088987,livox_frame,0.0,0.0,0.0,1.0,-0.0006384104490280151,-0.0036260774359107018,-0.001723303459584713,-0.004298609681427479,-0.013021247461438179,0.9851406812667847
1778601174096099304,1778601174,95704251,livox_frame,0.0,0.0,0.0,1.0,-0.0027689412236213684,-0.00788713525980711,-0.002788567915558815,-0.006740015931427479,-0.0025232010520994663,0.9929531812667847
1778601174100406870,1778601174,100006544,livox_frame,0.0,0.0,0.0,1.0,-0.0070299990475177765,-0.004691341891884804,-0.002788567915558815,-0.006740015931427479,-0.0025232010520994663,0.9929531812667847
1778601174106118374,1778601174,105705987,livox_frame,0.0,0.0,0.0,1.0,-0.012356320396065712,-0.0025608129799365997,-0.002788567915558815,-0.004298609681427479,-0.0010583573020994663,0.9963711500167847
1778601174110253721,1778601174,109905892,livox_frame,0.0,0.0,0.0,1.0,-0.012356320396065712,-0.0025608129799365997,-0.002788567915558815,-0.004298609681427479,-0.0010583573020994663,0.9963711500167847
1778601174116068449,1778601174,115721742,livox_frame,0.0,0.0,0.0,1.0,-0.0059647336602211,0.0017002448439598083,-0.001723303459584713,-0.0013689222978428006,-0.012044684961438179,0.9663418531417847
1778601174120746611,1778601174,120231815,livox_frame,0.0,0.0,0.0,1.0,0.00042685121297836304,0.0017002448439598083,-0.001723303459584713,-0.002833765931427479,-0.02181030996143818,0.9643887281417847
1778601174126033140,1778601174,125694489,livox_frame,0.0,0.0,0.0,1.0,0.0025573819875717163,-0.008952399715781212,-0.002788567915558815,-0.006984156556427479,-0.012288825586438179,0.9863613843917847
1778601174130180845,1778601174,129922131,livox_frame,0.0,0.0,0.0,1.0,-0.0017036758363246918,-0.006821870803833008,-0.002788567915558815,-0.004542750306427479,0.0028478926979005337,1.0180996656417847
1778601174135949080,1778601174,135726650,livox_frame,0.0,0.0,0.0,1.0,-0.013421585783362389,-0.004691341891884804,-0.002788567915558815,-0.006984156556427479,0.010904533788561821,1.0102871656417847
1778601174140054818,1778601174,139784098,livox_frame,0.0,0.0,0.0,1.0,-0.015552114695310593,-0.0014955485239624977,-0.003853832371532917,-0.002345484681427479,-0.0030114823020994663,0.9922207593917847
1778601174146022658,1778601174,145699449,livox_frame,0.0,0.0,0.0,1.0,-0.010225791484117508,0.0006349813193082809,-0.003853832371532917,-0.0008806410478428006,-0.014486091211438179,0.9690274000167847
1778601174150252898,1778601174,149964246,livox_frame,0.0,0.0,0.0,1.0,-0.0048994701355695724,0.0038307737559080124,-0.001723303459584713,0.0005842027021571994,-0.01619507558643818,0.9656094312667847
1778601174156061053,1778601174,155717572,livox_frame,0.0,0.0,0.0,1.0,0.0014921166002750397,-0.0004302840679883957,-0.004919096827507019,-0.004542750306427479,-0.012777106836438179,0.9707363843917847
1778601174159989214,1778601174,159822459,livox_frame,0.0,0.0,0.0,1.0,0.00042685121297836304,-0.006821870803833008,-0.003853832371532917,-0.006007594056427479,-0.006917732302099466,0.9927090406417847
1778601174165984754,1778601174,165695546,livox_frame,0.0,0.0,0.0,1.0,-0.00916052795946598,-0.00788713525980711,-0.004919096827507019,-0.006984156556427479,0.008951408788561821,1.0100430250167847
1778601174170304327,1778601174,170089193,livox_frame,0.0,0.0,0.0,1.0,-0.013421585783362389,0.0006349813193082809,-0.002788567915558815,0.0018049058271571994,0.006754142697900534,1.0051602125167847
1778601174175968981,1778601174,175739834,livox_frame,0.0,0.0,0.0,1.0,-0.010225791484117508,0.0017002448439598083,-0.003853832371532917,-0.008204859681427479,-0.015462653711438179,0.9775723218917847
1778601174180005092,1778601174,179775050,livox_frame,0.0,0.0,0.0,1.0,-0.0048994701355695724,-0.0036260774359107018,-0.004919096827507019,-0.0008806410478428006,-0.008870856836438179,0.9719570875167847
1778601174185967611,1778601174,185709589,livox_frame,0.0,0.0,0.0,1.0,-0.003834204748272896,0.0038307737559080124,-0.003853832371532917,9.592145215719938e-05,-0.008382575586438179,0.9743984937667847
1778601174190362426,1778601174,189975523,livox_frame,0.0,0.0,0.0,1.0,0.00042685121297836304,-0.004691341891884804,-0.002788567915558815,-0.005519312806427479,-0.01741577871143818,0.9712246656417847
1778601174195958969,1778601174,195709020,livox_frame,0.0,0.0,0.0,1.0,0.00042685121297836304,-0.006821870803833008,-0.001723303459584713,-0.004786890931427479,-0.005697029177099466,0.9927090406417847
1778601174200213297,1778601174,200011194,livox_frame,0.0,0.0,0.0,1.0,-0.0070299990475177765,-0.005756606347858906,-0.001723303459584713,-0.005275172181427479,0.006754142697900534,1.0122402906417847
1778601174205980307,1778601174,205698411,livox_frame,0.0,0.0,0.0,1.0,-0.013421585783362389,-0.0014955485239624977,-0.002788567915558815,-0.006495875306427479,0.005533439572900534,1.0054043531417847
1778601174210339856,1778601174,209999831,livox_frame,0.0,0.0,0.0,1.0,-0.013421585783362389,-0.0025608129799365997,-0.002788567915558815,-0.003810328431427479,-0.0025232010520994663,0.9883145093917847
1778601174216116615,1778601174,215718946,livox_frame,0.0,0.0,0.0,1.0,-0.008095262572169304,0.0017002448439598083,-0.002788567915558815,-0.0008806410478428006,-0.01717163808643818,0.9712246656417847
1778601174220505132,1778601174,220162804,livox_frame,0.0,0.0,0.0,1.0,-0.0006384104490280151,0.0006349813193082809,-0.003853832371532917,-0.002589625306427479,-0.01668335683643818,0.9651211500167847
1778601174225994956,1778601174,225812499,livox_frame,0.0,0.0,0.0,1.0,0.0014921166002750397,-0.0025608129799365997,-0.001723303459584713,-0.004786890931427479,-0.012532966211438179,0.9839199781417847
1778601174230068942,1778601174,229942456,livox_frame,0.0,0.0,0.0,1.0,-0.0027689412236213684,-0.00788713525980711,-0.002788567915558815,-0.008204859681427479,0.0023596114479005337,0.9990566968917847
1778601174235924601,1778601174,235697219,livox_frame,0.0,0.0,0.0,1.0,-0.010225791484117508,-0.0025608129799365997,-0.002788567915558815,-0.004298609681427479,0.006021720822900534,1.0100430250167847
1778601174240158474,1778601174,239875199,livox_frame,0.0,0.0,0.0,1.0,-0.010225791484117508,-0.0014955485239624977,-0.003853832371532917,-0.002833765931427479,-0.0034997635520994663,0.9971035718917847
1778601174245987242,1778601174,245694187,livox_frame,0.0,0.0,0.0,1.0,-0.013421585783362389,-0.0004302840679883957,-0.002788567915558815,-0.004542750306427479,-0.007894294336438179,0.9731777906417847
1778601174250408612,1778601174,249999190,livox_frame,0.0,0.0,0.0,1.0,-0.0070299990475177765,0.0006349813193082809,-0.002788567915558815,9.592145215719938e-05,-0.013997809961438179,0.9739102125167847
1778601174256020875,1778601174,255696275,livox_frame,0.0,0.0,0.0,1.0,0.00042685121297836304,-0.0004302840679883957,-0.001723303459584713,-0.005275172181427479,-0.01765991933643818,0.9670742750167847
1778601174260230964,1778601174,259885357,livox_frame,0.0,0.0,0.0,1.0,0.00042685121297836304,-0.005756606347858906,-0.002788567915558815,-0.004786890931427479,-0.010335700586438179,0.9883145093917847
1778601174266061944,1778601174,265693503,livox_frame,0.0,0.0,0.0,1.0,-0.0059647336602211,-0.006821870803833008,-0.003853832371532917,-0.005519312806427479,0.004556877072900534,1.0115078687667847
1778601174270228931,1778601174,269962153,livox_frame,0.0,0.0,0.0,1.0,-0.011291056871414185,-0.0004302840679883957,-0.002788567915558815,-0.0013689222978428006,0.009195549413561821,1.0066250562667847
1778601174276027711,1778601174,275707230,livox_frame,0.0,0.0,0.0,1.0,-0.013421585783362389,0.0006349813193082809,-0.002788567915558815,-0.006251734681427479,-0.012532966211438179,0.9805020093917847
1778601174280289762,1778601174,279985869,livox_frame,0.0,0.0,0.0,1.0,-0.0070299990475177765,-0.0036260774359107018,-0.002788567915558815,-0.002101344056427479,-0.011312263086438179,0.9729336500167847
1778601174285950693,1778601174,285554811,livox_frame,0.0,0.0,0.0,1.0,-0.003834204748272896,0.004896039143204689,-0.002788567915558815,9.592145215719938e-05,-0.008870856836438179,0.9726895093917847
1778601174289994485,1778601174,289782112,livox_frame,0.0,0.0,0.0,1.0,-0.0017036758363246918,-0.0036260774359107018,-0.002788567915558815,-0.006495875306427479,-0.01643921621143818,0.9665859937667847
1778601174295944546,1778601174,295725577,livox_frame,0.0,0.0,0.0,1.0,0.0014921166002750397,-0.006821870803833008,-0.002788567915558815,-0.005275172181427479,-0.008382575586438179,0.9936856031417847
1778601174300118249,1778601174,299885267,livox_frame,0.0,0.0,0.0,1.0,-0.003834204748272896,-0.006821870803833008,-0.002788567915558815,-0.003810328431427479,0.006998283322900534,1.0112637281417847
1778601174305931603,1778601174,305696184,livox_frame,0.0,0.0,0.0,1.0,-0.012356320396065712,-0.0036260774359107018,-0.002788567915558815,-0.006251734681427479,0.008463127538561821,1.0080899000167847
1778601174310353631,1778601174,310050040,livox_frame,0.0,0.0,0.0,1.0,-0.011291056871414185,-0.0025608129799365997,-0.003853832371532917,-0.004298609681427479,-0.0005700760520994663,0.9883145093917847
1778601174315971959,1778601174,315716060,livox_frame,0.0,0.0,0.0,1.0,-0.00916052795946598,0.0017002448439598083,-0.003853832371532917,0.002537327818572521,-0.011556403711438179,0.9714688062667847
1778601174320287093,1778601174,320096616,livox_frame,0.0,0.0,0.0,1.0,-0.0027689412236213684,0.0038307737559080124,-0.002788567915558815,-0.0011247816728428006,-0.02058960683643818,0.9597500562667847
1778601174325842280,1778601174,325692770,livox_frame,0.0,0.0,0.0,1.0,0.005753174424171448,-0.004691341891884804,-0.002788567915558815,-0.006007594056427479,-0.01839234121143818,0.9741543531417847
1778601174330142697,1778601174,329996155,livox_frame,0.0,0.0,0.0,1.0,0.0014921166002750397,-0.00788713525980711,-0.002788567915558815,-0.006740015931427479,0.0018713301979005337,1.0066250562667847
1778601174335936625,1778601174,335713718,livox_frame,0.0,0.0,0.0,1.0,-0.010225791484117508,-0.005756606347858906,-0.003853832371532917,-0.005519312806427479,0.012369377538561821,1.0163906812667847
1778601174340244143,1778601174,340011982,livox_frame,0.0,0.0,0.0,1.0,-0.014486849308013916,-0.0025608129799365997,-0.002788567915558815,-0.003322047181427479,0.0013830489479005337,1.0024746656417847
1778601174345852851,1778601174,345700908,livox_frame,0.0,0.0,0.0,1.0,-0.011291056871414185,0.0017002448439598083,-0.002788567915558815,-0.002833765931427479,-0.011800544336438179,0.9729336500167847
1778601174350002359,1778601174,349829888,livox_frame,0.0,0.0,0.0,1.0,-0.0059647336602211,0.0017002448439598083,-0.002788567915558815,-0.0003923597978428006,-0.01570679433643818,0.9719570875167847
1778601174355958200,1778601174,355691474,livox_frame,0.0,0.0,0.0,1.0,-0.0006384104490280151,-0.0014955485239624977,-0.002788567915558815,-0.004054469056427479,-0.014486091211438179,0.9722012281417847
1778601174360139220,1778601174,359982251,livox_frame,0.0,0.0,0.0,1.0,-0.0006384104490280151,-0.0025608129799365997,-0.003853832371532917,-0.005031031556427479,-0.010579841211438179,0.9848965406417847
1778601174365880914,1778601174,365734671,livox_frame,0.0,0.0,0.0,1.0,-0.0048994701355695724,-0.008952399715781212,-0.003853832371532917,-0.008693140931427479,0.0038244551979005337,1.0054043531417847
1778601174369993618,1778601174,369780096,livox_frame,0.0,0.0,0.0,1.0,-0.012356320396065712,-0.0036260774359107018,-0.004919096827507019,0.0013166245771571994,0.009195549413561821,1.0110195875167847
1778601174375895818,1778601174,375693958,livox_frame,0.0,0.0,0.0,1.0,-0.011291056871414185,0.0006349813193082809,-0.002788567915558815,-0.006251734681427479,-0.013265388086438179,0.9839199781417847
1778601174380241738,1778601174,380023586,livox_frame,0.0,0.0,0.0,1.0,-0.0070299990475177765,-0.0036260774359107018,-0.002788567915558815,-0.002833765931427479,-0.007650154177099466,0.9736660718917847
1778601174385893492,1778601174,385685086,livox_frame,0.0,0.0,0.0,1.0,-0.0070299990475177765,0.004896039143204689,-0.002788567915558815,0.0015607652021571994,-0.012777106836438179,0.9685391187667847
1778601174389964766,1778601174,389813060,livox_frame,0.0,0.0,0.0,1.0,-0.0006384104490280151,-0.0014955485239624977,-0.002788567915558815,-0.004298609681427479,-0.01961304433643818,0.9675625562667847
1778601174395894405,1778601174,395705707,livox_frame,0.0,0.0,0.0,1.0,0.0025573819875717163,-0.004691341891884804,-0.003853832371532917,-0.006251734681427479,-0.007650154177099466,0.9888027906417847
1778601174400012050,1778601174,399767343,livox_frame,0.0,0.0,0.0,1.0,-0.0048994701355695724,-0.006821870803833008,-0.003853832371532917,-0.005763453431427479,0.0035803145729005337,1.0056484937667847
1778601174405978637,1778601174,405690398,livox_frame,0.0,0.0,0.0,1.0,-0.011291056871414185,-0.0036260774359107018,-0.004919096827507019,-0.004786890931427479,0.005533439572900534,1.0127285718917847
1778601174410322158,1778601174,410043171,livox_frame,0.0,0.0,0.0,1.0,-0.013421585783362389,-0.005756606347858906,-0.003853832371532917,-0.005275172181427479,-0.0005700760520994663,0.9927090406417847
1778601174415865819,1778601174,415712560,livox_frame,0.0,0.0,0.0,1.0,-0.010225791484117508,0.0006349813193082809,-0.002788567915558815,0.0008283433271571994,-0.008382575586438179,0.9780606031417847
1778601174420141209,1778601174,420004417,livox_frame,0.0,0.0,0.0,1.0,-0.0027689412236213684,0.0017002448439598083,-0.002788567915558815,-0.0013689222978428006,-0.01790405996143818,0.9621914625167847
1778601174425689095,1778601174,425557068,livox_frame,0.0,0.0,0.0,1.0,0.0014921166002750397,-0.0014955485239624977,-0.003853832371532917,-0.003322047181427479,-0.02034546621143818,0.9685391187667847
1778601174429969000,1778601174,429819323,livox_frame,0.0,0.0,0.0,1.0,0.0014921166002750397,-0.00788713525980711,-0.002788567915558815,-0.005519312806427479,-0.004476326052099466,0.9988125562667847
1778601174435883724,1778601174,435699164,livox_frame,0.0,0.0,0.0,1.0,-0.0059647336602211,-0.0036260774359107018,-0.002788567915558815,-0.007472437806427479,0.013590080663561821,1.0161465406417847
1778601174440323505,1778601174,440105359,livox_frame,0.0,0.0,0.0,1.0,-0.014486849308013916,-0.004691341891884804,-0.003853832371532917,-0.003810328431427479,0.004068595822900534,1.0027188062667847
1778601174445873407,1778601174,445693388,livox_frame,0.0,0.0,0.0,1.0,-0.014486849308013916,0.0006349813193082809,-0.002788567915558815,-0.002345484681427479,-0.006429451052099466,0.9802578687667847
1778601174450254543,1778601174,449999488,livox_frame,0.0,0.0,0.0,1.0,-0.0048994701355695724,0.0017002448439598083,-0.002788567915558815,9.592145215719938e-05,-0.01668335683643818,0.9700039625167847
1778601174456041061,1778601174,455854784,livox_frame,0.0,0.0,0.0,1.0,-0.0017036758363246918,0.0017002448439598083,-0.003853832371532917,-0.0013689222978428006,-0.013509528711438179,0.9680508375167847
1778601174460038135,1778601174,459877679,livox_frame,0.0,0.0,0.0,1.0,0.00042685121297836304,-0.004691341891884804,-0.002788567915558815,-0.006740015931427479,-0.009847419336438179,0.9783047437667847
1778601174465931285,1778601174,465691956,livox_frame,0.0,0.0,0.0,1.0,-0.0017036758363246918,-0.006821870803833008,-0.003853832371532917,-0.005275172181427479,-0.005452888552099466,0.9980801343917847
1778601174470145733,1778601174,469918462,livox_frame,0.0,0.0,0.0,1.0,-0.012356320396065712,-0.005756606347858906,-0.002788567915558815,-0.003322047181427479,0.009439690038561821,1.0093106031417847
1778601174475931292,1778601174,475690441,livox_frame,0.0,0.0,0.0,1.0,-0.011291056871414185,0.0006349813193082809,-0.001723303459584713,-0.002833765931427479,0.0008947676979005337,0.9980801343917847
1778601174480173248,1778601174,480006000,livox_frame,0.0,0.0,0.0,1.0,-0.00916052795946598,-0.0036260774359107018,-0.002788567915558815,-0.007716578431427479,-0.014486091211438179,0.9743984937667847
1778601174485871225,1778601174,485699204,livox_frame,0.0,0.0,0.0,1.0,-0.0006384104490280151,0.0017002448439598083,-0.002788567915558815,0.002781468443572521,-0.011312263086438179,0.9700039625167847
1778601174490129553,1778601174,489950352,livox_frame,0.0,0.0,0.0,1.0,-0.0006384104490280151,-0.0014955485239624977,-0.003853832371532917,-0.004054469056427479,-0.013021247461438179,0.9719570875167847
1778601174495969051,1778601174,495689058,livox_frame,0.0,0.0,0.0,1.0,0.00042685121297836304,-0.005756606347858906,-0.003853832371532917,-0.004786890931427479,-0.013265388086438179,0.9807461500167847
1778601174500202424,1778601174,499979218,livox_frame,0.0,0.0,0.0,1.0,-0.0017036758363246918,-0.00788713525980711,-0.002788567915558815,-0.007228297181427479,0.0008947676979005337,1.0002774000167847
1778601174506004195,1778601174,505688943,livox_frame,0.0,0.0,0.0,1.0,-0.00916052795946598,-0.004691341891884804,-0.002788567915558815,-0.004298609681427479,0.006265861447900534,1.0124844312667847
1778601174510163047,1778601174,509798690,livox_frame,0.0,0.0,0.0,1.0,-0.012356320396065712,-0.0025608129799365997,-0.001723303459584713,-0.005763453431427479,0.0013830489479005337,0.9995449781417847
1778601174515999498,1778601174,515725166,livox_frame,0.0,0.0,0.0,1.0,-0.011291056871414185,-0.0004302840679883957,-0.002788567915558815,-0.0016130629228428006,-0.005452888552099466,0.9795254468917847
1778601174520535391,1778601174,520250610,livox_frame,0.0,0.0,0.0,1.0,-0.008095262572169304,0.0038307737559080124,-0.002788567915558815,-0.0008806410478428006,-0.01888062246143818,0.9636563062667847
1778601174526002732,1778601174,525711240,livox_frame,0.0,0.0,0.0,1.0,0.00468791276216507,-0.0004302840679883957,-0.003853832371532917,-0.002345484681427479,-0.02303101308643818,0.9680508375167847
1778601174530403087,1778601174,530100423,livox_frame,0.0,0.0,0.0,1.0,0.0025573819875717163,-0.006821870803833008,-0.004919096827507019,-0.007716578431427479,-0.006673591677099466,0.9868496656417847
1778601174535891213,1778601174,535527514,livox_frame,0.0,0.0,0.0,1.0,-0.0059647336602211,-0.008952399715781212,-0.002788567915558815,-0.006251734681427479,0.009439690038561821,1.0185879468917847
1778601174540274996,1778601174,539929445,livox_frame,0.0,0.0,0.0,1.0,-0.013421585783362389,-0.0036260774359107018,-0.002788567915558815,-0.0018572035478428006,0.006510002072900534,1.0132168531417847
1778601174545939220,1778601174,545694818,livox_frame,0.0,0.0,0.0,1.0,-0.01661737821996212,0.0006349813193082809,-0.002788567915558815,-0.006251734681427479,-0.004964607302099466,0.9824551343917847
1778601174550242446,1778601174,549974508,livox_frame,0.0,0.0,0.0,1.0,-0.008095262572169304,-0.0004302840679883957,-0.002788567915558815,-0.00014821917284280062,-0.013997809961438179,0.9736660718917847
1778601174555921117,1778601174,555694518,livox_frame,0.0,0.0,0.0,1.0,-0.0017036758363246918,0.0006349813193082809,-0.002788567915558815,-0.002345484681427479,-0.014730231836438179,0.9636563062667847
1778601174560165701,1778601174,559880833,livox_frame,0.0,0.0,0.0,1.0,-0.0017036758363246918,-0.0036260774359107018,-0.002788567915558815,-0.003322047181427479,-0.015462653711438179,0.9746426343917847
1778601174565945823,1778601174,565689425,livox_frame,0.0,0.0,0.0,1.0,-0.0006384104490280151,-0.006821870803833008,-0.001723303459584713,-0.005275172181427479,-0.007161872927099466,0.9956387281417847
1778601174570388537,1778601174,570030140,livox_frame,0.0,0.0,0.0,1.0,-0.00916052795946598,-0.006821870803833008,-0.003853832371532917,-0.005763453431427479,0.009683830663561821,1.0095547437667847
1778601174576087917,1778601174,575697051,livox_frame,0.0,0.0,0.0,1.0,-0.014486849308013916,0.0017002448439598083,-0.002788567915558815,0.0005842027021571994,0.004068595822900534,1.0000332593917847
1778601174580239208,1778601174,579922683,livox_frame,0.0,0.0,0.0,1.0,-0.010225791484117508,0.0006349813193082809,-0.003853832371532917,-0.007960719056427479,-0.01717163808643818,0.9743984937667847
1778601174586094751,1778601174,585688990,livox_frame,0.0,0.0,0.0,1.0,-0.003834204748272896,-0.0025608129799365997,-0.002788567915558815,-0.002101344056427479,-0.009114997461438179,0.9719570875167847
1778601174590479307,1778601174,590171288,livox_frame,0.0,0.0,0.0,1.0,-0.0006384104490280151,0.0006349813193082809,-0.001723303459584713,-0.0016130629228428006,-0.010335700586438179,0.9709805250167847
1778601174596135327,1778601174,595811283,livox_frame,0.0,0.0,0.0,1.0,-0.0006384104490280151,-0.006821870803833008,-0.002788567915558815,-0.005763453431427479,-0.015218513086438179,0.9741543531417847
1778601174600287411,1778601174,599918668,livox_frame,0.0,0.0,0.0,1.0,-0.0006384104490280151,-0.005756606347858906,-0.002788567915558815,-0.006007594056427479,-0.004476326052099466,0.9985684156417847
1778601174606009317,1778601174,605687950,livox_frame,0.0,0.0,0.0,1.0,-0.0070299990475177765,-0.004691341891884804,-0.002788567915558815,-0.003810328431427479,0.008707268163561821,1.0156582593917847
1778601174610276565,1778601174,609949775,livox_frame,0.0,0.0,0.0,1.0,-0.014486849308013916,-0.0004302840679883957,-0.002788567915558815,-0.006251734681427479,0.004801017697900534,1.0010098218917847
1778601174616158851,1778601174,615710896,livox_frame,0.0,0.0,0.0,1.0,-0.010225791484117508,-0.0014955485239624977,-0.002788567915558815,-0.0018572035478428006,-0.005941169802099466,0.9822109937667847
1778601174620366024,1778601174,620065012,livox_frame,0.0,0.0,0.0,1.0,-0.0070299990475177765,0.0038307737559080124,-0.001723303459584713,0.003758030943572521,-0.01570679433643818,0.9680508375167847
1778601174626042518,1778601174,625715310,livox_frame,0.0,0.0,0.0,1.0,0.0014921166002750397,0.0006349813193082809,-0.003853832371532917,-0.003810328431427479,-0.02132202871143818,0.9614590406417847
1778601174630050186,1778601174,629755496,livox_frame,0.0,0.0,0.0,1.0,0.003622647374868393,-0.00788713525980711,-0.003853832371532917,-0.006740015931427479,-0.012288825586438179,0.9853848218917847
1778601174636002295,1778601174,635688766,livox_frame,0.0,0.0,0.0,1.0,-0.0017036758363246918,-0.005756606347858906,-0.002788567915558815,-0.006007594056427479,0.006265861447900534,1.0141934156417847
1778601174640152254,1778601174,639859434,livox_frame,0.0,0.0,0.0,1.0,-0.012356320396065712,-0.0036260774359107018,-0.003853832371532917,-0.006007594056427479,0.013345940038561821,1.0115078687667847
1778601174645977930,1778601174,645686387,livox_frame,0.0,0.0,0.0,1.0,-0.01661737821996212,-0.0014955485239624977,-0.003853832371532917,-0.002589625306427479,-0.0022790604270994663,0.9922207593917847
1778601174650170378,1778601174,649878196,livox_frame,0.0,0.0,0.0,1.0,-0.011291056871414185,0.0006349813193082809,-0.003853832371532917,-0.0003923597978428006,-0.014241950586438179,0.9687832593917847
1778601174656108283,1778601174,655689400,livox_frame,0.0,0.0,0.0,1.0,-0.0027689412236213684,0.0017002448439598083,-0.002788567915558815,9.592145215719938e-05,-0.01765991933643818,0.9678066968917847
1778601174660358386,1778601174,659960327,livox_frame,0.0,0.0,0.0,1.0,0.00042685121297836304,-0.0004302840679883957,-0.001723303459584713,-0.002833765931427479,-0.014241950586438179,0.9743984937667847
1778601174666070199,1778601174,665729090,livox_frame,0.0,0.0,0.0,1.0,0.00042685121297836304,-0.005756606347858906,-0.002788567915558815,-0.006740015931427479,-0.007406013552099466,0.9907559156417847
1778601174670129299,1778601174,669783975,livox_frame,0.0,0.0,0.0,1.0,-0.0070299990475177765,-0.00788713525980711,-0.003853832371532917,-0.006740015931427479,0.0026037520729005337,1.0068691968917847
1778601174676043915,1778601174,675697072,livox_frame,0.0,0.0,0.0,1.0,-0.014486849308013916,-0.004691341891884804,-0.003853832371532917,-0.002345484681427479,0.009195549413561821,1.0022305250167847
1778601174680251831,1778601174,679917833,livox_frame,0.0,0.0,0.0,1.0,-0.012356320396065712,0.0038307737559080124,-0.003853832371532917,0.0010724839521571994,-0.012288825586438179,0.9783047437667847
1778601174686034223,1778601174,685686507,livox_frame,0.0,0.0,0.0,1.0,-0.0070299990475177765,-0.0025608129799365997,-0.002788567915558815,-0.007228297181427479,-0.01765991933643818,0.9702481031417847
1778601174690433930,1778601174,690065774,livox_frame,0.0,0.0,0.0,1.0,0.00042685121297836304,-0.0014955485239624977,-0.003853832371532917,0.0005842027021571994,-0.009603278711438179,0.9736660718917847
1778601174696009946,1778601174,695691085,livox_frame,0.0,0.0,0.0,1.0,-0.0027689412236213684,-0.0025608129799365997,-0.002788567915558815,-0.006740015931427479,-0.008870856836438179,0.9792813062667847
1778601174700322346,1778601174,699981957,livox_frame,0.0,0.0,0.0,1.0,0.00042685121297836304,-0.006821870803833008,-0.002788567915558815,-0.005031031556427479,-0.009847419336438179,0.9927090406417847
1778601174706182968,1778601174,705690073,livox_frame,0.0,0.0,0.0,1.0,-0.0048994701355695724,-0.006821870803833008,-0.004919096827507019,-0.005763453431427479,0.004068595822900534,1.0076016187667847
1778601174710531683,1778601174,710048663,livox_frame,0.0,0.0,0.0,1.0,-0.014486849308013916,-0.0025608129799365997,-0.001723303459584713,-0.003810328431427479,0.006510002072900534,1.0119961500167847
1778601174716052274,1778601174,715709834,livox_frame,0.0,0.0,0.0,1.0,-0.012356320396065712,-0.0014955485239624977,-0.002788567915558815,-0.003810328431427479,-0.0017907791770994663,0.9897793531417847
1778601174720408356,1778601174,720132036,livox_frame,0.0,0.0,0.0,1.0,-0.00916052795946598,0.0006349813193082809,-0.003853832371532917,-0.0008806410478428006,-0.011068122461438179,0.9682949781417847
1778601174725804273,1778601174,725535176,livox_frame,0.0,0.0,0.0,1.0,-0.0017036758363246918,0.0017002448439598083,-0.002788567915558815,-0.0013689222978428006,-0.01936890371143818,0.9607266187667847
1778601174730210457,1778601174,729916309,livox_frame,0.0,0.0,0.0,1.0,0.00468791276216507,-0.004691341891884804,-0.002788567915558815,-0.004786890931427479,-0.01863648183643818,0.9743984937667847
1778601174735954564,1778601174,735690166,livox_frame,0.0,0.0,0.0,1.0,0.0014921166002750397,-0.008952399715781212,-0.002788567915558815,-0.006740015931427479,0.004068595822900534,1.0049160718917847
1778601174740169148,1778601174,739943621,livox_frame,0.0,0.0,0.0,1.0,-0.011291056871414185,-0.006821870803833008,-0.002788567915558815,-0.004786890931427479,0.013590080663561821,1.0173672437667847
1778601174745904955,1778601174,745686754,livox_frame,0.0,0.0,0.0,1.0,-0.015552114695310593,-0.0025608129799365997,-0.002788567915558815,-0.003322047181427479,0.0016271895729005337,0.9995449781417847
1778601174750267048,1778601174,749994948,livox_frame,0.0,0.0,0.0,1.0,-0.010225791484117508,0.0017002448439598083,-0.002788567915558815,-0.0003923597978428006,-0.012044684961438179,0.9736660718917847
1778601174755969400,1778601174,755685933,livox_frame,0.0,0.0,0.0,1.0,-0.0048994701355695724,0.0017002448439598083,-0.002788567915558815,9.592145215719938e-05,-0.01570679433643818,0.9641445875167847
1778601174760248703,1778601174,760010372,livox_frame,0.0,0.0,0.0,1.0,-0.0006384104490280151,0.0006349813193082809,-0.002788567915558815,-0.002101344056427479,-0.015218513086438179,0.9719570875167847
1778601174766061763,1778601174,765705909,livox_frame,0.0,0.0,0.0,1.0,0.00042685121297836304,-0.0025608129799365997,-0.003853832371532917,-0.006740015931427479,-0.008382575586438179,0.9834316968917847
1778601174770041374,1778601174,769844739,livox_frame,0.0,0.0,0.0,1.0,-0.003834204748272896,-0.00788713525980711,-0.003853832371532917,-0.006984156556427479,-0.0003259354270994663,1.0032070875167847
1778601174775877854,1778601174,775681986,livox_frame,0.0,0.0,0.0,1.0,-0.012356320396065712,-0.0036260774359107018,-0.002788567915558815,-0.004786890931427479,0.009439690038561821,1.0076016187667847
1778601174780176878,1778601174,779926225,livox_frame,0.0,0.0,0.0,1.0,-0.012356320396065712,0.004896039143204689,-0.001723303459584713,0.002781468443572521,-0.004964607302099466,0.9839199781417847
1778601174785985862,1778601174,785701515,livox_frame,0.0,0.0,0.0,1.0,-0.00916052795946598,-0.0014955485239624977,-0.002788567915558815,-0.009913844056427479,-0.01985718496143818,0.9678066968917847
1778601174790318944,1778601174,790033362,livox_frame,0.0,0.0,0.0,1.0,-0.0027689412236213684,-0.0036260774359107018,-0.003853832371532917,0.0015607652021571994,-0.010823981836438179,0.9778164625167847
1778601174796186808,1778601174,795684857,livox_frame,0.0,0.0,0.0,1.0,-0.0017036758363246918,0.0017002448439598083,-0.002788567915558815,-0.004298609681427479,-0.008138434961438179,0.9780606031417847
1778601174800329080,1778601174,799972607,livox_frame,0.0,0.0,0.0,1.0,0.0014921166002750397,-0.010017664171755314,-0.003853832371532917,-0.006495875306427479,-0.012532966211438179,0.9858731031417847
1778601174806056682,1778601174,805684831,livox_frame,0.0,0.0,0.0,1.0,-0.0027689412236213684,-0.006821870803833008,-0.004919096827507019,-0.005763453431427479,0.0013830489479005337,1.0056484937667847
1778601174810179526,1778601174,809900728,livox_frame,0.0,0.0,0.0,1.0,-0.010225791484117508,-0.0036260774359107018,-0.003853832371532917,-0.003322047181427479,0.007486564572900534,1.0154141187667847
1778601174816173723,1778601174,815709813,livox_frame,0.0,0.0,0.0,1.0,-0.012356320396065712,-0.0004302840679883957,-0.002788567915558815,-0.006251734681427479,-0.0008142166770994663,0.9907559156417847
1778601174820691065,1778601174,820206812,livox_frame,0.0,0.0,0.0,1.0,-0.010225791484117508,0.0006349813193082809,-0.002788567915558815,-0.00014821917284280062,-0.010335700586438179,0.9724453687667847
1778601174825924919,1778601174,825516296,livox_frame,0.0,0.0,0.0,1.0,-0.003834204748272896,0.0038307737559080124,-0.003853832371532917,-0.00014821917284280062,-0.02156616933643818,0.9641445875167847
1778601174830301643,1778601174,829916663,livox_frame,0.0,0.0,0.0,1.0,0.005753174424171448,-0.0014955485239624977,-0.002788567915558815,-0.005275172181427479,-0.01839234121143818,0.9724453687667847
1778601174836073346,1778601174,835682490,livox_frame,0.0,0.0,0.0,1.0,0.00042685121297836304,-0.00788713525980711,-0.003853832371532917,-0.007228297181427479,-0.0003259354270994663,0.9975918531417847
1778601174840301557,1778601174,839949890,livox_frame,0.0,0.0,0.0,1.0,-0.00916052795946598,-0.005756606347858906,-0.002788567915558815,-0.005763453431427479,0.011392815038561821,1.0163906812667847
1778601174845986253,1778601174,845703587,livox_frame,0.0,0.0,0.0,1.0,-0.014486849308013916,0.0006349813193082809,-0.002788567915558815,0.0010724839521571994,0.0008947676979005337,0.9985684156417847
1778601174850291692,1778601174,849980651,livox_frame,0.0,0.0,0.0,1.0,-0.011291056871414185,-0.0004302840679883957,-0.003853832371532917,-0.004542750306427479,-0.012044684961438179,0.9768399000167847
1778601174856015698,1778601174,855726045,livox_frame,0.0,0.0,0.0,1.0,-0.0070299990475177765,-0.0004302840679883957,-0.003853832371532917,-0.0018572035478428006,-0.012288825586438179,0.9778164625167847
1778601174860257880,1778601174,859804611,livox_frame,0.0,0.0,0.0,1.0,-0.0006384104490280151,0.0006349813193082809,-0.002788567915558815,-0.0013689222978428006,-0.010823981836438179,0.9729336500167847
1778601174866035229,1778601174,865684729,livox_frame,0.0,0.0,0.0,1.0,0.0014921166002750397,-0.0036260774359107018,-0.003853832371532917,-0.006251734681427479,-0.013021247461438179,0.9770840406417847
1778601174870457331,1778601174,870030451,livox_frame,0.0,0.0,0.0,1.0,-0.0048994701355695724,-0.006821870803833008,-0.003853832371532917,-0.005519312806427479,-0.0034997635520994663,0.9978359937667847
1778601174876204054,1778601174,875796298,livox_frame,0.0,0.0,0.0,1.0,-0.008095262572169304,-0.005756606347858906,-0.003853832371532917,-0.004542750306427479,0.006998283322900534,1.0090664625167847
1778601174880184768,1778601174,879883755,livox_frame,0.0,0.0,0.0,1.0,-0.013421585783362389,0.002765510231256485,-0.001723303459584713,0.002537327818572521,0.0018713301979005337,0.9902676343917847
1778601174886000914,1778601174,885701777,livox_frame,0.0,0.0,0.0,1.0,-0.00916052795946598,-0.0025608129799365997,-0.003853832371532917,-0.008937281556427479,-0.01717163808643818,0.9714688062667847
1778601174890151872,1778601174,889842183,livox_frame,0.0,0.0,0.0,1.0,-0.0006384104490280151,-0.0025608129799365997,-0.002788567915558815,0.0010724839521571994,-0.009847419336438179,0.9719570875167847
1778601174895969375,1778601174,895704611,livox_frame,0.0,0.0,0.0,1.0,-0.0017036758363246918,-0.0004302840679883957,-0.002788567915558815,-0.003566187806427479,-0.009359138086438179,0.9751309156417847
1778601174900053040,1778601174,899830439,livox_frame,0.0,0.0,0.0,1.0,0.0014921166002750397,-0.006821870803833008,-0.003853832371532917,-0.005275172181427479,-0.013265388086438179,0.9861172437667847
1778601174906160156,1778601174,905861641,livox_frame,0.0,0.0,0.0,1.0,-0.0006384104490280151,-0.00788713525980711,-0.003853832371532917,-0.005275172181427479,0.0011389083229005337,1.0036953687667847
1778601174910271009,1778601174,909966405,livox_frame,0.0,0.0,0.0,1.0,-0.012356320396065712,-0.0025608129799365997,-0.002788567915558815,-0.002101344056427479,0.010172111913561821,1.0144375562667847
1778601174915957907,1778601174,915706655,livox_frame,0.0,0.0,0.0,1.0,-0.013421585783362389,-0.0014955485239624977,-0.002788567915558815,-0.006740015931427479,-0.0005700760520994663,0.9941738843917847
1778601174920441315,1778601174,920126620,livox_frame,0.0,0.0,0.0,1.0,-0.011291056871414185,0.0017002448439598083,-0.002788567915558815,-0.0018572035478428006,-0.009847419336438179,0.9736660718917847
1778601174926060151,1778601174,925688444,livox_frame,0.0,0.0,0.0,1.0,-0.0059647336602211,0.0038307737559080124,-0.000658039003610611,0.0013166245771571994,-0.01619507558643818,0.9641445875167847
1778601174930109296,1778601174,929829020,livox_frame,0.0,0.0,0.0,1.0,0.00468791276216507,-0.0014955485239624977,-0.002788567915558815,-0.006495875306427479,-0.02083374746143818,0.9648770093917847
1778601174935925392,1778601174,935682326,livox_frame,0.0,0.0,0.0,1.0,0.00468791276216507,-0.00788713525980711,-0.002788567915558815,-0.005275172181427479,-0.005452888552099466,0.9975918531417847
1778601174940239214,1778601174,939820765,livox_frame,0.0,0.0,0.0,1.0,-0.008095262572169304,-0.006821870803833008,-0.002788567915558815,-0.005763453431427479,0.010416252538561821,1.0156582593917847
1778601174945940723,1778601174,945691629,livox_frame,0.0,0.0,0.0,1.0,-0.014486849308013916,0.0006349813193082809,-0.003853832371532917,-0.004786890931427479,0.008218986913561821,1.0093106031417847
1778601174950202259,1778601174,949939924,livox_frame,0.0,0.0,0.0,1.0,-0.014486849308013916,0.0006349813193082809,-0.003853832371532917,-0.002589625306427479,-0.006673591677099466,0.9814785718917847
1778601174955974929,1778601174,955686395,livox_frame,0.0,0.0,0.0,1.0,-0.0017036758363246918,0.0017002448439598083,-0.002788567915558815,-0.0013689222978428006,-0.01643921621143818,0.9690274000167847
1778601174960203848,1778601174,959952011,livox_frame,0.0,0.0,0.0,1.0,-0.0017036758363246918,0.0017002448439598083,-0.002788567915558815,-0.0013689222978428006,-0.01643921621143818,0.9690274000167847
1778601174966012749,1778601174,965690246,livox_frame,0.0,0.0,0.0,1.0,-0.0017036758363246918,-0.00788713525980711,-0.003853832371532917,-0.006495875306427479,-0.005452888552099466,0.9968594312667847
1778601174970259457,1778601174,969971958,livox_frame,0.0,0.0,0.0,1.0,-0.0017036758363246918,-0.00788713525980711,-0.003853832371532917,-0.006495875306427479,-0.005452888552099466,0.9968594312667847
1778601174976052284,1778601174,975701120,livox_frame,0.0,0.0,0.0,1.0,-0.015552114695310593,0.002765510231256485,-0.002788567915558815,0.002293187193572521,0.0035803145729005337,0.9936856031417847
1778601174980064234,1778601174,979789019,livox_frame,0.0,0.0,0.0,1.0,-0.015552114695310593,0.002765510231256485,-0.002788567915558815,0.002293187193572521,0.0035803145729005337,0.9936856031417847
1778601174985976633,1778601174,985682850,livox_frame,0.0,0.0,0.0,1.0,-0.0027689412236213684,-0.004691341891884804,-0.002788567915558815,9.592145215719938e-05,-0.012288825586438179,0.9729336500167847
1778601174990188259,1778601174,989922494,livox_frame,0.0,0.0,0.0,1.0,-0.0027689412236213684,-0.004691341891884804,-0.002788567915558815,9.592145215719938e-05,-0.012288825586438179,0.9729336500167847
1778601174996006198,1778601174,995680615,livox_frame,0.0,0.0,0.0,1.0,0.0014921166002750397,-0.005756606347858906,-0.002788567915558815,-0.006495875306427479,-0.01570679433643818,0.9763516187667847
1778601175000377220,1778601175,21837,livox_frame,0.0,0.0,0.0,1.0,0.0014921166002750397,-0.005756606347858906,-0.002788567915558815,-0.006495875306427479,-0.01570679433643818,0.9763516187667847
1778601175005796854,1778601175,5481111,livox_frame,0.0,0.0,0.0,1.0,-0.008095262572169304,-0.006821870803833008,-0.003853832371532917,-0.003322047181427479,0.009439690038561821,1.0159024000167847
1778601175010213113,1778601175,9906205,livox_frame,0.0,0.0,0.0,1.0,-0.008095262572169304,-0.006821870803833008,-0.003853832371532917,-0.003322047181427479,0.009439690038561821,1.0159024000167847
1778601175016112010,1778601175,15702533,livox_frame,0.0,0.0,0.0,1.0,-0.013421585783362389,-0.0014955485239624977,-0.002788567915558815,-0.003077906556427479,-0.005941169802099466,0.9770840406417847
1778601175020467518,1778601175,20019512,livox_frame,0.0,0.0,0.0,1.0,-0.013421585783362389,-0.0014955485239624977,-0.002788567915558815,-0.003077906556427479,-0.005941169802099466,0.9770840406417847
1778601175026056656,1778601175,25692655,livox_frame,0.0,0.0,0.0,1.0,0.00042685121297836304,0.0006349813193082809,-0.003853832371532917,-0.0013689222978428006,-0.01839234121143818,0.9636563062667847
1778601175030159303,1778601175,29858702,livox_frame,0.0,0.0,0.0,1.0,0.00042685121297836304,0.0006349813193082809,-0.003853832371532917,-0.0013689222978428006,-0.01839234121143818,0.9636563062667847
1778601175035994272,1778601175,35688897,livox_frame,0.0,0.0,0.0,1.0,-0.0017036758363246918,-0.010017664171755314,-0.004919096827507019,-0.006740015931427479,0.007730705197900534,1.0139492750167847
1778601175040142418,1778601175,39860287,livox_frame,0.0,0.0,0.0,1.0,-0.0017036758363246918,-0.010017664171755314,-0.004919096827507019,-0.006740015931427479,0.007730705197900534,1.0139492750167847
1778601175045951415,1778601175,45707188,livox_frame,0.0,0.0,0.0,1.0,-0.01661737821996212,-0.0004302840679883957,-0.002788567915558815,-0.004054469056427479,-0.0034997635520994663,0.9892910718917847
1778601175050340586,1778601175,49984115,livox_frame,0.0,0.0,0.0,1.0,-0.01661737821996212,-0.0004302840679883957,-0.002788567915558815,-0.004054469056427479,-0.0034997635520994663,0.9892910718917847
1778601175056096968,1778601175,55782829,livox_frame,0.0,0.0,0.0,1.0,-0.0017036758363246918,-0.0014955485239624977,-0.002788567915558815,-0.0003923597978428006,-0.01619507558643818,0.9651211500167847
1778601175060182310,1778601175,59892104,livox_frame,0.0,0.0,0.0,1.0,-0.0017036758363246918,-0.0014955485239624977,-0.002788567915558815,-0.0003923597978428006,-0.01619507558643818,0.9651211500167847
1778601175066049616,1778601175,65683269,livox_frame,0.0,0.0,0.0,1.0,-0.0006384104490280151,-0.006821870803833008,-0.002788567915558815,-0.006495875306427479,-0.005452888552099466,0.9907559156417847
1778601175070463248,1778601175,69954043,livox_frame,0.0,0.0,0.0,1.0,-0.0006384104490280151,-0.006821870803833008,-0.002788567915558815,-0.006495875306427479,-0.005452888552099466,0.9907559156417847
1778601175076188804,1778601175,75694938,livox_frame,0.0,0.0,0.0,1.0,-0.013421585783362389,-0.0025608129799365997,-0.001723303459584713,-0.002345484681427479,0.007242423947900534,1.0036953687667847
1778601175080397791,1778601175,79950991,livox_frame,0.0,0.0,0.0,1.0,-0.013421585783362389,-0.0025608129799365997,-0.001723303459584713,-0.002345484681427479,0.007242423947900534,1.0036953687667847
1778601175085996655,1778601175,85705678,livox_frame,0.0,0.0,0.0,1.0,-0.0059647336602211,-0.0036260774359107018,-0.002788567915558815,-0.008204859681427479,-0.01961304433643818,0.9704922437667847
1778601175089972159,1778601175,89683311,livox_frame,0.0,0.0,0.0,1.0,-0.0059647336602211,-0.0036260774359107018,-0.002788567915558815,-0.008204859681427479,-0.01961304433643818,0.9704922437667847
1778601175096091463,1778601175,95679191,livox_frame,0.0,0.0,0.0,1.0,-0.0017036758363246918,-0.0004302840679883957,-0.002788567915558815,-0.006740015931427479,-0.005941169802099466,0.9805020093917847
1778601175100352296,1778601175,99947816,livox_frame,0.0,0.0,0.0,1.0,0.00042685121297836304,-0.010017664171755314,-0.002788567915558815,-0.007472437806427479,-0.009847419336438179,0.9941738843917847
1778601175106057916,1778601175,105682725,livox_frame,0.0,0.0,0.0,1.0,-0.0059647336602211,-0.005756606347858906,-0.002788567915558815,-0.005275172181427479,0.004312736447900534,1.0080899000167847
1778601175110257119,1778601175,109867291,livox_frame,0.0,0.0,0.0,1.0,-0.0059647336602211,-0.005756606347858906,-0.002788567915558815,-0.005275172181427479,0.004312736447900534,1.0080899000167847
1778601175116165273,1778601175,115705348,livox_frame,0.0,0.0,0.0,1.0,-0.012356320396065712,-0.0025608129799365997,-0.003853832371532917,-0.004786890931427479,-0.007406013552099466,0.9861172437667847
1778601175120507192,1778601175,120113884,livox_frame,0.0,0.0,0.0,1.0,-0.008095262572169304,0.0017002448439598083,-0.003853832371532917,-0.0011247816728428006,-0.012777106836438179,0.9670742750167847
1778601175126128937,1778601175,125782487,livox_frame,0.0,0.0,0.0,1.0,-0.0006384104490280151,0.0006349813193082809,-0.002788567915558815,0.0005842027021571994,-0.01888062246143818,0.9656094312667847
1778601175130183883,1778601175,129816431,livox_frame,0.0,0.0,0.0,1.0,0.0014921166002750397,-0.005756606347858906,-0.002788567915558815,-0.007228297181427479,-0.01570679433643818,0.9780606031417847
1778601175136112950,1778601175,135683430,livox_frame,0.0,0.0,0.0,1.0,0.00042685121297836304,-0.010017664171755314,-0.003853832371532917,-0.005519312806427479,0.0030920333229005337,1.0105313062667847
1778601175140405390,1778601175,139995888,livox_frame,0.0,0.0,0.0,1.0,-0.014486849308013916,-0.0036260774359107018,-0.003853832371532917,-0.005763453431427479,0.011881096288561821,1.0134609937667847
1778601175146211883,1778601175,145553613,livox_frame,0.0,0.0,0.0,1.0,-0.015552114695310593,-0.0014955485239624977,-0.002788567915558815,-0.003077906556427479,-0.0003259354270994663,0.9968594312667847
1778601175150274164,1778601175,149878347,livox_frame,0.0,0.0,0.0,1.0,-0.010225791484117508,0.0006349813193082809,-0.003853832371532917,-0.0018572035478428006,-0.012288825586438179,0.9717129468917847
1778601175155977926,1778601175,155676543,livox_frame,0.0,0.0,0.0,1.0,-0.0027689412236213684,0.0017002448439598083,-0.002788567915558815,-0.0013689222978428006,-0.01619507558643818,0.9626797437667847
1778601175160278174,1778601175,159984071,livox_frame,0.0,0.0,0.0,1.0,-0.0006384104490280151,-0.0004302840679883957,-0.003853832371532917,-0.002345484681427479,-0.013265388086438179,0.9739102125167847
1778601175166179337,1778601175,165706222,livox_frame,0.0,0.0,0.0,1.0,0.0025573819875717163,-0.004691341891884804,-0.003853832371532917,-0.005763453431427479,-0.008382575586438179,0.9866055250167847
1778601175170522491,1778601175,169982306,livox_frame,0.0,0.0,0.0,1.0,-0.0048994701355695724,-0.008952399715781212,-0.002788567915558815,-0.007228297181427479,0.0030920333229005337,1.0041836500167847
1778601175176173510,1778601175,175706410,livox_frame,0.0,0.0,0.0,1.0,-0.015552114695310593,-0.006821870803833008,-0.003853832371532917,-0.003810328431427479,0.008951408788561821,1.0076016187667847
1778601175180389110,1778601175,179939298,livox_frame,0.0,0.0,0.0,1.0,-0.010225791484117508,0.004896039143204689,-0.001723303459584713,0.003758030943572521,-0.006429451052099466,0.9807461500167847
1778601175186061174,1778601175,185680845,livox_frame,0.0,0.0,0.0,1.0,-0.0059647336602211,-0.0004302840679883957,-0.001723303459584713,-0.008693140931427479,-0.02058960683643818,0.9577969312667847
1778601175190095343,1778601175,189820228,livox_frame,0.0,0.0,0.0,1.0,-0.0017036758363246918,-0.005756606347858906,-0.003853832371532917,0.0010724839521571994,-0.009359138086438179,0.9883145093917847
1778601175195943064,1778601175,195678645,livox_frame,0.0,0.0,0.0,1.0,-0.0027689412236213684,0.002765510231256485,-0.003853832371532917,-0.002345484681427479,-0.010579841211438179,0.9783047437667847
1778601175200397197,1778601175,199987437,livox_frame,0.0,0.0,0.0,1.0,0.00042685121297836304,-0.00788713525980711,-0.003853832371532917,-0.008693140931427479,-0.006917732302099466,0.9883145093917847
1778601175205964355,1778601175,205679824,livox_frame,0.0,0.0,0.0,1.0,-0.0070299990475177765,-0.00788713525980711,-0.002788567915558815,-0.006495875306427479,0.0004064864479005337,1.0095547437667847
1778601175210251682,1778601175,209952213,livox_frame,0.0,0.0,0.0,1.0,-0.010225791484117508,-0.0036260774359107018,-0.002788567915558815,-0.004054469056427479,0.005045158322900534,1.0124844312667847
1778601175215953093,1778601175,215700801,livox_frame,0.0,0.0,0.0,1.0,-0.013421585783362389,-0.0004302840679883957,-0.002788567915558815,-0.006007594056427479,-8.179480209946632e-05,0.9873379468917847
1778601175220274833,1778601175,220036749,livox_frame,0.0,0.0,0.0,1.0,-0.010225791484117508,-0.0014955485239624977,-0.002788567915558815,-0.0003923597978428006,-0.013021247461438179,0.9700039625167847
1778601175225847286,1778601175,225678355,livox_frame,0.0,0.0,0.0,1.0,-0.0017036758363246918,0.002765510231256485,-0.002788567915558815,0.0015607652021571994,-0.01936890371143818,0.9678066968917847
1778601175230010351,1778601175,229787426,livox_frame,0.0,0.0,0.0,1.0,0.00042685121297836304,-0.0025608129799365997,-0.003853832371532917,-0.005763453431427479,-0.01668335683643818,0.9734219312667847
1778601175235960240,1778601175,235698881,livox_frame,0.0,0.0,0.0,1.0,-0.0006384104490280151,-0.006821870803833008,-0.004919096827507019,-0.005275172181427479,-0.0017907791770994663,1.0044277906417847
1778601175240174707,1778601175,240023661,livox_frame,0.0,0.0,0.0,1.0,-0.0070299990475177765,-0.006821870803833008,-0.003853832371532917,-0.008204859681427479,0.011392815038561821,1.0115078687667847
1778601175245972925,1778601175,245811566,livox_frame,0.0,0.0,0.0,1.0,-0.015552114695310593,-0.0014955485239624977,-0.002788567915558815,-0.002101344056427479,0.0028478926979005337,1.0024746656417847
1778601175250105035,1778601175,249794056,livox_frame,0.0,0.0,0.0,1.0,-0.014486849308013916,0.0006349813193082809,-0.002788567915558815,-0.004054469056427479,-0.012288825586438179,0.9700039625167847
1778601175255985320,1778601175,255678438,livox_frame,0.0,0.0,0.0,1.0,-0.003834204748272896,0.0006349813193082809,-0.002788567915558815,0.0003400620771571994,-0.01741577871143818,0.9690274000167847
1778601175260239491,1778601175,259965361,livox_frame,0.0,0.0,0.0,1.0,0.00042685121297836304,-0.0004302840679883957,-0.003853832371532917,-0.002833765931427479,-0.013753669336438179,0.9700039625167847
1778601175266015749,1778601175,265681919,livox_frame,0.0,0.0,0.0,1.0,0.00042685121297836304,-0.005756606347858906,-0.003853832371532917,-0.003810328431427479,-0.009847419336438179,0.9824551343917847
1778601175270163892,1778601175,269857623,livox_frame,0.0,0.0,0.0,1.0,-0.0006384104490280151,-0.005756606347858906,-0.003853832371532917,-0.006495875306427479,-0.0034997635520994663,1.0010098218917847
1778601175276027034,1778601175,275681745,livox_frame,0.0,0.0,0.0,1.0,-0.012356320396065712,-0.004691341891884804,-0.002788567915558815,-0.006251734681427479,0.009439690038561821,1.0080899000167847
1778601175280264935,1778601175,280000000,livox_frame,0.0,0.0,0.0,1.0,-0.014486849308013916,0.002765510231256485,-0.004919096827507019,-0.0008806410478428006,0.0004064864479005337,0.9883145093917847
1778601175285832169,1778601175,285678368,livox_frame,0.0,0.0,0.0,1.0,-0.0059647336602211,0.002765510231256485,-0.003853832371532917,-0.002345484681427479,-0.02181030996143818,0.9631680250167847
1778601175290201836,1778601175,289883296,livox_frame,0.0,0.0,0.0,1.0,-0.003834204748272896,-0.004691341891884804,-0.002788567915558815,-0.005275172181427479,-0.013753669336438179,0.9751309156417847
1778601175296040613,1778601175,295680759,livox_frame,0.0,0.0,0.0,1.0,0.0014921166002750397,-0.0014955485239624977,-0.002788567915558815,-0.0018572035478428006,-0.009359138086438179,0.9861172437667847
1778601175300312074,1778601175,299991619,livox_frame,0.0,0.0,0.0,1.0,-0.0027689412236213684,-0.005756606347858906,-0.002788567915558815,-0.008204859681427479,-0.004720466677099466,0.9866055250167847
1778601175306054842,1778601175,305753261,livox_frame,0.0,0.0,0.0,1.0,-0.0048994701355695724,-0.00788713525980711,-0.002788567915558815,-0.005275172181427479,-0.0022790604270994663,1.0032070875167847
1778601175310249448,1778601175,309934016,livox_frame,0.0,0.0,0.0,1.0,-0.00916052795946598,-0.004691341891884804,-0.000658039003610611,-0.004542750306427479,0.004312736447900534,1.0097988843917847
1778601175315985616,1778601175,315699148,livox_frame,0.0,0.0,0.0,1.0,-0.014486849308013916,0.0006349813193082809,-0.002788567915558815,-0.002833765931427479,0.0023596114479005337,0.9961270093917847
1778601175320349910,1778601175,320188686,livox_frame,0.0,0.0,0.0,1.0,-0.012356320396065712,-0.0004302840679883957,-0.004919096827507019,-0.003322047181427479,-0.010335700586438179,0.9709805250167847
1778601175325676512,1778601175,325509305,livox_frame,0.0,0.0,0.0,1.0,-0.003834204748272896,-0.0004302840679883957,-0.002788567915558815,0.0010724839521571994,-0.01765991933643818,0.9670742750167847
1778601175330032467,1778601175,329867532,livox_frame,0.0,0.0,0.0,1.0,0.0025573819875717163,-0.0004302840679883957,-0.002788567915558815,-0.003810328431427479,-0.01936890371143818,0.9702481031417847
1778601175335862007,1778601175,335675615,livox_frame,0.0,0.0,0.0,1.0,0.0025573819875717163,-0.00788713525980711,-0.002788567915558815,-0.008204859681427479,-0.006429451052099466,0.9931973218917847
1778601175340131308,1778601175,339959377,livox_frame,0.0,0.0,0.0,1.0,-0.0059647336602211,-0.00788713525980711,-0.003853832371532917,-0.006740015931427479,0.011881096288561821,1.0180996656417847
1778601175345849299,1778601175,345700839,livox_frame,0.0,0.0,0.0,1.0,-0.013421585783362389,-0.0004302840679883957,-0.003853832371532917,-0.0013689222978428006,0.007974846288561821,1.0080899000167847
1778601175349902558,1778601175,349753387,livox_frame,0.0,0.0,0.0,1.0,-0.015552114695310593,0.0017002448439598083,-0.003853832371532917,-0.003322047181427479,-0.008382575586438179,0.9780606031417847
1778601175356044897,1778601175,355680957,livox_frame,0.0,0.0,0.0,1.0,-0.0059647336602211,0.0006349813193082809,-0.002788567915558815,-0.00014821917284280062,-0.01765991933643818,0.9663418531417847
1778601175360226290,1778601175,359950453,livox_frame,0.0,0.0,0.0,1.0,-0.0027689412236213684,0.0017002448439598083,-0.002788567915558815,-0.0018572035478428006,-0.013509528711438179,0.9680508375167847
1778601175366141032,1778601175,365679031,livox_frame,0.0,0.0,0.0,1.0,-0.0006384104490280151,-0.0036260774359107018,-0.003853832371532917,-0.004298609681427479,-0.011800544336438179,0.9792813062667847
1778601175370153180,1778601175,369892892,livox_frame,0.0,0.0,0.0,1.0,-0.0017036758363246918,-0.004691341891884804,-0.003853832371532917,-0.005275172181427479,-0.0032556229270994663,0.9966152906417847
1778601175375878394,1778601175,375674037,livox_frame,0.0,0.0,0.0,1.0,-0.010225791484117508,-0.005756606347858906,-0.001723303459584713,-0.005031031556427479,0.004801017697900534,1.0085781812667847
1778601175380142414,1778601175,379891664,livox_frame,0.0,0.0,0.0,1.0,-0.014486849308013916,0.0017002448439598083,-0.002788567915558815,0.0005842027021571994,0.0035803145729005337,0.9944180250167847
1778601175385855846,1778601175,385700394,livox_frame,0.0,0.0,0.0,1.0,-0.011291056871414185,0.0017002448439598083,-0.002788567915558815,-0.004298609681427479,-0.014974372461438179,0.9709805250167847
1778601175390330500,1778601175,390000096,livox_frame,0.0,0.0,0.0,1.0,-0.0059647336602211,-0.0036260774359107018,-0.002788567915558815,-0.002833765931427479,-0.01619507558643818,0.9785488843917847
1778601175395934127,1778601175,395717437,livox_frame,0.0,0.0,0.0,1.0,0.00042685121297836304,0.002765510231256485,-0.001723303459584713,-0.0018572035478428006,-0.011800544336438179,0.9726895093917847
1778601175400144840,1778601175,399825514,livox_frame,0.0,0.0,0.0,1.0,0.0025573819875717163,-0.005756606347858906,-0.002788567915558815,-0.008204859681427479,-0.007161872927099466,0.9851406812667847
1778601175406014896,1778601175,405695378,livox_frame,0.0,0.0,0.0,1.0,-0.003834204748272896,-0.00788713525980711,-0.002788567915558815,-0.005031031556427479,-0.0020349198020994663,0.9995449781417847
1778601175410126298,1778601175,409780514,livox_frame,0.0,0.0,0.0,1.0,-0.008095262572169304,-0.004691341891884804,-0.001723303459584713,-0.003810328431427479,0.005045158322900534,1.0139492750167847
1778601175415985842,1778601175,415696776,livox_frame,0.0,0.0,0.0,1.0,-0.013421585783362389,0.0006349813193082809,-0.002788567915558815,-0.004786890931427479,0.0028478926979005337,0.9946621656417847
1778601175420543658,1778601175,420202068,livox_frame,0.0,0.0,0.0,1.0,-0.012356320396065712,-0.0025608129799365997,-0.002788567915558815,-0.0011247816728428006,-0.011312263086438179,0.9795254468917847
1778601175426118049,1778601175,425783355,livox_frame,0.0,0.0,0.0,1.0,-0.0027689412236213684,0.0017002448439598083,-0.003853832371532917,-0.0013689222978428006,-0.01814820058643818,0.9695156812667847
1778601175430165036,1778601175,429811747,livox_frame,0.0,0.0,0.0,1.0,0.0014921166002750397,-0.0014955485239624977,-0.002788567915558815,-0.004298609681427479,-0.012777106836438179,0.9695156812667847
1778601175435983586,1778601175,435688986,livox_frame,0.0,0.0,0.0,1.0,-0.0006384104490280151,-0.006821870803833008,-0.002788567915558815,-0.005275172181427479,-0.009847419336438179,0.9971035718917847
1778601175440151631,1778601175,439967276,livox_frame,0.0,0.0,0.0,1.0,-0.0059647336602211,-0.0036260774359107018,-0.002788567915558815,-0.007960719056427479,0.007486564572900534,1.0056484937667847
1778601175445941992,1778601175,445677268,livox_frame,0.0,0.0,0.0,1.0,-0.01661737821996212,-0.0004302840679883957,-0.002788567915558815,-0.004542750306427479,0.004068595822900534,0.9951504468917847
1778601175450199599,1778601175,449963574,livox_frame,0.0,0.0,0.0,1.0,-0.008095262572169304,0.002765510231256485,-0.002788567915558815,0.0013166245771571994,-0.013265388086438179,0.9734219312667847
1778601175455966850,1778601175,455674118,livox_frame,0.0,0.0,0.0,1.0,-0.003834204748272896,0.0006349813193082809,-0.002788567915558815,-0.003566187806427479,-0.01570679433643818,0.9680508375167847
1778601175460189172,1778601175,459884118,livox_frame,0.0,0.0,0.0,1.0,-0.0059647336602211,-0.0036260774359107018,-0.002788567915558815,-0.002345484681427479,-0.007406013552099466,0.9844082593917847
1778601175466127727,1778601175,465751851,livox_frame,0.0,0.0,0.0,1.0,-0.0017036758363246918,-0.0004302840679883957,-0.003853832371532917,-0.0003923597978428006,-0.005452888552099466,0.9946621656417847
1778601175469959812,1778601175,469796353,livox_frame,0.0,0.0,0.0,1.0,-0.0048994701355695724,-0.00788713525980711,-0.003853832371532917,-0.009181422181427479,-0.005941169802099466,0.9883145093917847
1778601175475861930,1778601175,475685245,livox_frame,0.0,0.0,0.0,1.0,-0.00916052795946598,-0.006821870803833008,-0.003853832371532917,-0.002101344056427479,0.0030920333229005337,1.0149258375167847
1778601175480109886,1778601175,479957730,livox_frame,0.0,0.0,0.0,1.0,-0.00916052795946598,0.004896039143204689,-0.002788567915558815,-0.002833765931427479,0.0006506270729005337,0.9914883375167847
1778601175486115088,1778601175,485674905,livox_frame,0.0,0.0,0.0,1.0,-0.010225791484117508,-0.0036260774359107018,-0.002788567915558815,-0.006740015931427479,-0.006429451052099466,0.9748867750167847
1778601175490276912,1778601175,489923277,livox_frame,0.0,0.0,0.0,1.0,-0.0059647336602211,0.0038307737559080124,-0.002788567915558815,0.002049046568572521,-0.011556403711438179,0.9651211500167847
1778601175496052782,1778601175,495677423,livox_frame,0.0,0.0,0.0,1.0,-0.0006384104490280151,-0.0004302840679883957,-0.001723303459584713,-0.0013689222978428006,-0.01888062246143818,0.9724453687667847
1778601175500198375,1778601175,499892155,livox_frame,0.0,0.0,0.0,1.0,0.0025573819875717163,-0.0036260774359107018,-0.003853832371532917,-0.004786890931427479,-0.012288825586438179,0.9775723218917847
1778601175506060609,1778601175,505678417,livox_frame,0.0,0.0,0.0,1.0,-0.0027689412236213684,-0.010017664171755314,-0.002788567915558815,-0.008449000306427479,0.0021154708229005337,1.0036953687667847
1778601175510182969,1778601175,509877548,livox_frame,0.0,0.0,0.0,1.0,-0.010225791484117508,-0.004691341891884804,-0.004919096827507019,-0.003810328431427479,0.007486564572900534,1.0141934156417847
1778601175515913028,1778601175,515710960,livox_frame,0.0,0.0,0.0,1.0,-0.012356320396065712,-0.0025608129799365997,-0.001723303459584713,-0.004786890931427479,0.0028478926979005337,1.0007656812667847
1778601175520559683,1778601175,520194250,livox_frame,0.0,0.0,0.0,1.0,-0.013421585783362389,-0.0004302840679883957,-0.002788567915558815,-0.0018572035478428006,-0.005697029177099466,0.9780606031417847
1778601175526052027,1778601175,525741935,livox_frame,0.0,0.0,0.0,1.0,-0.0070299990475177765,0.0017002448439598083,-0.002788567915558815,-0.0003923597978428006,-0.013265388086438179,0.9656094312667847
1778601175530437322,1778601175,530090399,livox_frame,0.0,0.0,0.0,1.0,-0.0027689412236213684,-0.0004302840679883957,-0.002788567915558815,-0.0011247816728428006,-0.01717163808643818,0.9695156812667847
1778601175535987518,1778601175,535793261,livox_frame,0.0,0.0,0.0,1.0,0.0025573819875717163,-0.005756606347858906,-0.002788567915558815,-0.006495875306427479,-0.012532966211438179,0.9829434156417847
1778601175539960581,1778601175,539765204,livox_frame,0.0,0.0,0.0,1.0,-0.0027689412236213684,-0.008952399715781212,-0.003853832371532917,-0.005031031556427479,0.004556877072900534,1.0127285718917847
1778601175545827884,1778601175,545677814,livox_frame,0.0,0.0,0.0,1.0,-0.011291056871414185,-0.004691341891884804,-0.001723303459584713,-0.007228297181427479,0.010416252538561821,1.0071133375167847
1778601175550308328,1778601175,550003400,livox_frame,0.0,0.0,0.0,1.0,-0.01661737821996212,0.0006349813193082809,-0.002788567915558815,0.0018049058271571994,-0.0003259354270994663,0.9907559156417847
1778601175555956688,1778601175,555677648,livox_frame,0.0,0.0,0.0,1.0,-0.010225791484117508,-0.0004302840679883957,-0.002788567915558815,-0.003322047181427479,-0.01888062246143818,0.9695156812667847
1778601175560257532,1778601175,559935441,livox_frame,0.0,0.0,0.0,1.0,-0.0017036758363246918,-0.0004302840679883957,-0.002788567915558815,-0.0016130629228428006,-0.014241950586438179,0.9668301343917847
1778601175565952768,1778601175,565704614,livox_frame,0.0,0.0,0.0,1.0,-0.0006384104490280151,-0.0014955485239624977,-0.002788567915558815,-0.003566187806427479,-0.009847419336438179,0.9768399000167847
1778601175570088555,1778601175,569787956,livox_frame,0.0,0.0,0.0,1.0,-0.0006384104490280151,-0.005756606347858906,-0.001723303459584713,-0.005275172181427479,-0.008870856836438179,0.9870938062667847
1778601175575887517,1778601175,575688388,livox_frame,0.0,0.0,0.0,1.0,-0.0027689412236213684,-0.006821870803833008,-0.003853832371532917,-0.005763453431427479,0.0006506270729005337,1.0068691968917847
1778601175580058811,1778601175,579928351,livox_frame,0.0,0.0,0.0,1.0,-0.015552114695310593,-0.0036260774359107018,-0.002788567915558815,-0.005275172181427479,0.012369377538561821,1.0073574781417847
1778601175586000368,1778601175,585752636,livox_frame,0.0,0.0,0.0,1.0,-0.013421585783362389,0.002765510231256485,-0.001723303459584713,0.0013166245771571994,-0.007894294336438179,0.9826992750167847
1778601175590128359,1778601175,589861323,livox_frame,0.0,0.0,0.0,1.0,-0.0027689412236213684,0.0038307737559080124,-0.002788567915558815,-0.003810328431427479,-0.02473999746143818,0.9568203687667847
1778601175595891758,1778601175,595675026,livox_frame,0.0,0.0,0.0,1.0,-0.0017036758363246918,-0.006821870803833008,-0.003853832371532917,-0.006251734681427479,-0.010335700586438179,0.9739102125167847
1778601175600342400,1778601175,600079843,livox_frame,0.0,0.0,0.0,1.0,0.00042685121297836304,-0.0004302840679883957,-0.003853832371532917,0.0018049058271571994,-0.004964607302099466,1.0022305250167847
1778601175605964662,1778601175,605673194,livox_frame,0.0,0.0,0.0,1.0,-0.0059647336602211,-0.004691341891884804,-0.003853832371532917,-0.011622828431427479,-0.0025232010520994663,0.9829434156417847
1778601175610165394,1778601175,609942272,livox_frame,0.0,0.0,0.0,1.0,-0.0070299990475177765,-0.00788713525980711,-0.003853832371532917,-0.005031031556427479,-0.0013024979270994663,1.0076016187667847
1778601175615992909,1778601175,615696750,livox_frame,0.0,0.0,0.0,1.0,-0.010225791484117508,-0.0014955485239624977,-0.002788567915558815,-0.002101344056427479,0.0033361739479005337,1.0083340406417847
1778601175620545884,1778601175,620117737,livox_frame,0.0,0.0,0.0,1.0,-0.014486849308013916,0.0017002448439598083,-0.003853832371532917,-0.003077906556427479,0.00016234582290053368,0.9883145093917847
1778601175626010190,1778601175,625693436,livox_frame,0.0,0.0,0.0,1.0,-0.008095262572169304,0.0006349813193082809,-0.002788567915558815,-0.004298609681427479,-0.013997809961438179,0.9665859937667847
1778601175630084667,1778601175,629874653,livox_frame,0.0,0.0,0.0,1.0,-0.0006384104490280151,-0.0004302840679883957,-0.000658039003610611,0.0010724839521571994,-0.02034546621143818,0.9675625562667847
1778601175635909901,1778601175,635673036,livox_frame,0.0,0.0,0.0,1.0,0.0025573819875717163,-0.0025608129799365997,-0.003853832371532917,-0.005763453431427479,-0.01619507558643818,0.9765957593917847
1778601175640242299,1778601175,639927627,livox_frame,0.0,0.0,0.0,1.0,-0.0017036758363246918,-0.008952399715781212,-0.004919096827507019,-0.010157984681427479,0.0004064864479005337,1.0034512281417847
1778601175645936110,1778601175,645677887,livox_frame,0.0,0.0,0.0,1.0,-0.010225791484117508,-0.006821870803833008,-0.002788567915558815,-0.006007594056427479,0.013101799413561821,1.0161465406417847
1778601175650331824,1778601175,649939071,livox_frame,0.0,0.0,0.0,1.0,-0.015552114695310593,-0.0004302840679883957,-0.002788567915558815,-0.00014821917284280062,0.0018713301979005337,1.0005215406417847
1778601175655908764,1778601175,655677363,livox_frame,0.0,0.0,0.0,1.0,-0.012356320396065712,0.0006349813193082809,-0.003853832371532917,-0.005031031556427479,-0.01619507558643818,0.9665859937667847
1778601175660213700,1778601175,659957704,livox_frame,0.0,0.0,0.0,1.0,-0.0027689412236213684,0.0017002448439598083,-0.003853832371532917,0.0005842027021571994,-0.01643921621143818,0.9682949781417847
1778601175665826511,1778601175,665675185,livox_frame,0.0,0.0,0.0,1.0,-0.0006384104490280151,-0.0014955485239624977,-0.003853832371532917,-0.003810328431427479,-0.013265388086438179,0.9692715406417847
1778601175670289297,1778601175,669936695,livox_frame,0.0,0.0,0.0,1.0,0.00042685121297836304,-0.006821870803833008,-0.002788567915558815,-0.005763453431427479,-0.010579841211438179,0.9858731031417847
1778601175676048644,1778601175,675685405,livox_frame,0.0,0.0,0.0,1.0,-0.0027689412236213684,-0.00788713525980711,-0.002788567915558815,-0.006740015931427479,0.0008947676979005337,1.0056484937667847
1778601175680377415,1778601175,679935903,livox_frame,0.0,0.0,0.0,1.0,-0.014486849308013916,-0.004691341891884804,-0.001723303459584713,-0.006007594056427479,0.010660393163561821,1.0049160718917847
1778601175685978304,1778601175,685685610,livox_frame,0.0,0.0,0.0,1.0,-0.011291056871414185,0.004896039143204689,-0.002788567915558815,0.003025609068572521,-0.006917732302099466,0.9812344312667847
1778601175690094428,1778601175,689787047,livox_frame,0.0,0.0,0.0,1.0,-0.0059647336602211,-0.0004302840679883957,-0.003853832371532917,-0.007960719056427479,-0.01936890371143818,0.9636563062667847
1778601175695992062,1778601175,695669499,livox_frame,0.0,0.0,0.0,1.0,-0.0017036758363246918,-0.004691341891884804,-0.002788567915558815,0.0013166245771571994,-0.008626716211438179,0.9819668531417847
1778601175700424514,1778601175,700074336,livox_frame,0.0,0.0,0.0,1.0,-0.0006384104490280151,0.0017002448439598083,-0.001723303459584713,-0.004786890931427479,-0.009359138086438179,0.9768399000167847
1778601175706047562,1778601175,705670341,livox_frame,0.0,0.0,0.0,1.0,0.0025573819875717163,-0.006821870803833008,-0.002788567915558815,-0.007228297181427479,-0.008626716211438179,0.9883145093917847
1778601175710380169,1778601175,709897733,livox_frame,0.0,0.0,0.0,1.0,-0.0048994701355695724,-0.00788713525980711,-0.002788567915558815,-0.005275172181427479,0.0026037520729005337,1.0088223218917847
1778601175716095431,1778601175,715697478,livox_frame,0.0,0.0,0.0,1.0,-0.011291056871414185,-0.0036260774359107018,-0.002788567915558815,-0.003322047181427479,0.009195549413561821,1.0137051343917847
1778601175720508614,1778601175,720082564,livox_frame,0.0,0.0,0.0,1.0,-0.012356320396065712,-0.0004302840679883957,-0.002788567915558815,-0.005275172181427479,-0.0008142166770994663,0.9851406812667847
1778601175726149174,1778601175,725797606,livox_frame,0.0,0.0,0.0,1.0,-0.010225791484117508,-0.0014955485239624977,-0.002788567915558815,0.0010724839521571994,-0.013021247461438179,0.9736660718917847
1778601175730103049,1778601175,729759680,livox_frame,0.0,0.0,0.0,1.0,-0.0048994701355695724,0.0017002448439598083,-0.002788567915558815,-0.002345484681427479,-0.01888062246143818,0.9690274000167847
1778601175735875703,1778601175,735667967,livox_frame,0.0,0.0,0.0,1.0,0.0025573819875717163,-0.0036260774359107018,-0.003853832371532917,-0.005031031556427479,-0.013509528711438179,0.9739102125167847
1778601175740549499,1778601175,740037201,livox_frame,0.0,0.0,0.0,1.0,-0.0017036758363246918,-0.006821870803833008,-0.003853832371532917,-0.006007594056427479,-0.003988044802099466,1.0002774000167847
1778601175746011847,1778601175,745673404,livox_frame,0.0,0.0,0.0,1.0,-0.0059647336602211,-0.004691341891884804,-0.002788567915558815,-0.005763453431427479,0.008951408788561821,1.0100430250167847
1778601175750306782,1778601175,749856047,livox_frame,0.0,0.0,0.0,1.0,-0.014486849308013916,-0.0014955485239624977,-0.002788567915558815,-0.004298609681427479,0.006021720822900534,1.0036953687667847
1778601175755951414,1778601175,755677750,livox_frame,0.0,0.0,0.0,1.0,-0.013421585783362389,0.0017002448439598083,-0.001723303459584713,-0.0008806410478428006,-0.010335700586438179,0.9765957593917847
1778601175760177993,1778601175,759962621,livox_frame,0.0,0.0,0.0,1.0,-0.003834204748272896,0.0017002448439598083,-0.002788567915558815,-0.0003923597978428006,-0.01741577871143818,0.9631680250167847
1778601175765864003,1778601175,765668745,livox_frame,0.0,0.0,0.0,1.0,-0.0006384104490280151,0.0006349813193082809,-0.002788567915558815,-0.002345484681427479,-0.014730231836438179,0.9670742750167847
1778601175770207970,1778601175,769942428,livox_frame,0.0,0.0,0.0,1.0,0.00042685121297836304,-0.0025608129799365997,-0.001723303459584713,-0.004786890931427479,-0.012044684961438179,0.9822109937667847
1778601175776108478,1778601175,775819156,livox_frame,0.0,0.0,0.0,1.0,-0.0017036758363246918,-0.005756606347858906,-0.003853832371532917,-0.007716578431427479,-0.0025232010520994663,1.0014981031417847
1778601175780148453,1778601175,779845802,livox_frame,0.0,0.0,0.0,1.0,-0.010225791484117508,-0.005756606347858906,-0.002788567915558815,-0.006251734681427479,0.008707268163561821,1.0095547437667847
1778601175785982573,1778601175,785673095,livox_frame,0.0,0.0,0.0,1.0,-0.014486849308013916,0.0006349813193082809,-0.002788567915558815,-0.0003923597978428006,0.0016271895729005337,0.9927090406417847
1778601175790007540,1778601175,789914995,livox_frame,0.0,0.0,0.0,1.0,-0.0048994701355695724,0.0038307737559080124,-0.002788567915558815,0.0008283433271571994,-0.02058960683643818,0.9648770093917847
1778601175795882042,1778601175,795678923,livox_frame,0.0,0.0,0.0,1.0,-0.003834204748272896,-0.004691341891884804,-0.002788567915558815,-0.006251734681427479,-0.015462653711438179,0.9668301343917847
1778601175800193191,1778601175,799976975,livox_frame,0.0,0.0,0.0,1.0,0.00042685121297836304,-0.0004302840679883957,-0.002788567915558815,0.0010724839521571994,-0.007406013552099466,0.9922207593917847
1778601175805993664,1778601175,805669231,livox_frame,0.0,0.0,0.0,1.0,-0.0017036758363246918,-0.0036260774359107018,-0.002788567915558815,-0.009181422181427479,-0.0034997635520994663,0.9834316968917847
1778601175810394789,1778601175,810067397,livox_frame,0.0,0.0,0.0,1.0,-0.0048994701355695724,-0.010017664171755314,-0.002788567915558815,-0.005519312806427479,-0.0032556229270994663,1.0027188062667847
1778601175815997020,1778601175,815703453,livox_frame,0.0,0.0,0.0,1.0,-0.00916052795946598,-0.004691341891884804,-0.002788567915558815,-0.003077906556427479,0.004312736447900534,1.0132168531417847
1778601175820497467,1778601175,820220769,livox_frame,0.0,0.0,0.0,1.0,-0.014486849308013916,-0.0014955485239624977,-0.003853832371532917,-0.004542750306427479,0.0035803145729005337,0.9956387281417847
1778601175825935793,1778601175,825703298,livox_frame,0.0,0.0,0.0,1.0,-0.012356320396065712,0.0006349813193082809,-0.002788567915558815,-0.003322047181427479,-0.009359138086438179,0.9768399000167847
1778601175829968800,1778601175,829717574,livox_frame,0.0,0.0,0.0,1.0,-0.0027689412236213684,-0.0004302840679883957,-0.002788567915558815,-0.0013689222978428006,-0.01668335683643818,0.9675625562667847
1778601175835937870,1778601175,835673233,livox_frame,0.0,0.0,0.0,1.0,0.00042685121297836304,-0.0004302840679883957,-0.003853832371532917,-0.002345484681427479,-0.01668335683643818,0.9709805250167847
1778601175840322005,1778601175,840032378,livox_frame,0.0,0.0,0.0,1.0,0.0014921166002750397,-0.006821870803833008,-0.002788567915558815,-0.009181422181427479,-0.007650154177099466,0.9927090406417847
1778601175845983789,1778601175,845773168,livox_frame,0.0,0.0,0.0,1.0,-0.003834204748272896,-0.006821870803833008,-0.004919096827507019,-0.006251734681427479,0.009439690038561821,1.0112637281417847
1778601175849982050,1778601175,849783666,livox_frame,0.0,0.0,0.0,1.0,-0.015552114695310593,-0.0036260774359107018,-0.003853832371532917,-0.004786890931427479,0.009439690038561821,1.0085781812667847
1778601175856027223,1778601175,855671468,livox_frame,0.0,0.0,0.0,1.0,-0.013421585783362389,0.0006349813193082809,-0.002788567915558815,-0.0018572035478428006,-0.007650154177099466,0.9829434156417847
1778601175860214728,1778601175,859933443,livox_frame,0.0,0.0,0.0,1.0,-0.0070299990475177765,0.0017002448439598083,-0.003853832371532917,-0.0013689222978428006,-0.01717163808643818,0.9621914625167847
1778601175865909427,1778601175,865673770,livox_frame,0.0,0.0,0.0,1.0,-0.0017036758363246918,-0.0004302840679883957,-0.003853832371532917,-0.0013689222978428006,-0.01668335683643818,0.9685391187667847
1778601175870360661,1778601175,870027331,livox_frame,0.0,0.0,0.0,1.0,0.0014921166002750397,-0.0036260774359107018,-0.004919096827507019,-0.004542750306427479,-0.011800544336438179,0.9783047437667847
1778601175875984588,1778601175,875686464,livox_frame,0.0,0.0,0.0,1.0,-0.0006384104490280151,-0.006821870803833008,-0.002788567915558815,-0.006495875306427479,-0.0032556229270994663,0.9944180250167847
1778601175880172197,1778601175,879904241,livox_frame,0.0,0.0,0.0,1.0,-0.00916052795946598,-0.006821870803833008,-0.003853832371532917,-0.006251734681427479,0.004312736447900534,1.0076016187667847
1778601175885965730,1778601175,885667101,livox_frame,0.0,0.0,0.0,1.0,-0.014486849308013916,-0.0014955485239624977,-0.002788567915558815,-0.0008806410478428006,0.0035803145729005337,0.9971035718917847
1778601175890158677,1778601175,889916953,livox_frame,0.0,0.0,0.0,1.0,-0.011291056871414185,0.0038307737559080124,-0.002788567915558815,-0.0003923597978428006,-0.012777106836438179,0.9712246656417847
1778601175896117312,1778601175,895669296,livox_frame,0.0,0.0,0.0,1.0,-0.0059647336602211,-0.0036260774359107018,-0.003853832371532917,-0.006740015931427479,-0.01888062246143818,0.9743984937667847
1778601175900454073,1778601175,900031564,livox_frame,0.0,0.0,0.0,1.0,0.0014921166002750397,-0.0004302840679883957,-0.004919096827507019,-0.0003923597978428006,-0.011068122461438179,0.9800137281417847
1778601175906073470,1778601175,905676239,livox_frame,0.0,0.0,0.0,1.0,-0.003834204748272896,-0.005756606347858906,-0.002788567915558815,-0.008693140931427479,-0.003988044802099466,0.9817227125167847
1778601175910272299,1778601175,909921943,livox_frame,0.0,0.0,0.0,1.0,-0.0017036758363246918,-0.00788713525980711,-0.003853832371532917,-0.004786890931427479,-0.0025232010520994663,1.0066250562667847
1778601175916052240,1778601175,915764809,livox_frame,0.0,0.0,0.0,1.0,-0.008095262572169304,-0.00788713525980711,-0.002788567915558815,-0.005275172181427479,0.0028478926979005337,1.0041836500167847
1778601175920366658,1778601175,920136861,livox_frame,0.0,0.0,0.0,1.0,-0.014486849308013916,-0.0004302840679883957,-0.002788567915558815,-0.0013689222978428006,0.0023596114479005337,1.0036953687667847
1778601175925929975,1778601175,925685428,livox_frame,0.0,0.0,0.0,1.0,-0.012356320396065712,0.0006349813193082809,-0.001723303459584713,-0.003810328431427479,-0.006429451052099466,0.9773281812667847
1778601175929896325,1778601175,929819980,livox_frame,0.0,0.0,0.0,1.0,-0.003834204748272896,-0.0014955485239624977,-0.002788567915558815,-0.0016130629228428006,-0.01570679433643818,0.9660977125167847
1778601175935873908,1778601175,935670409,livox_frame,0.0,0.0,0.0,1.0,0.00042685121297836304,-0.004691341891884804,-0.002788567915558815,-0.0016130629228428006,-0.01814820058643818,0.9690274000167847
1778601175940193776,1778601175,939916217,livox_frame,0.0,0.0,0.0,1.0,0.00042685121297836304,-0.004691341891884804,-0.002788567915558815,-0.008204859681427479,-0.012777106836438179,0.9853848218917847
1778601175946038982,1778601175,945665381,livox_frame,0.0,0.0,0.0,1.0,-0.012356320396065712,-0.004691341891884804,-0.003853832371532917,-0.004054469056427479,0.012857658788561821,1.0154141187667847
1778601175950243173,1778601175,950020401,livox_frame,0.0,0.0,0.0,1.0,-0.012356320396065712,-0.004691341891884804,-0.003853832371532917,-0.004054469056427479,0.012857658788561821,1.0154141187667847
1778601175955943169,1778601175,955666120,livox_frame,0.0,0.0,0.0,1.0,-0.010225791484117508,0.0017002448439598083,-0.003853832371532917,-0.0008806410478428006,-0.01790405996143818,0.9636563062667847
1778601175960267540,1778601175,959984459,livox_frame,0.0,0.0,0.0,1.0,-0.010225791484117508,0.0017002448439598083,-0.003853832371532917,-0.0008806410478428006,-0.01790405996143818,0.9636563062667847
1778601175965999981,1778601175,965668515,livox_frame,0.0,0.0,0.0,1.0,-0.0006384104490280151,-0.0014955485239624977,-0.001723303459584713,-0.004298609681427479,-0.011800544336438179,0.9768399000167847
1778601175970173437,1778601175,969903550,livox_frame,0.0,0.0,0.0,1.0,-0.0006384104490280151,-0.0014955485239624977,-0.001723303459584713,-0.004298609681427479,-0.011800544336438179,0.9768399000167847
1778601175975881706,1778601175,975669603,livox_frame,0.0,0.0,0.0,1.0,-0.0048994701355695724,-0.005756606347858906,-0.003853832371532917,-0.006251734681427479,0.005045158322900534,1.0061367750167847
1778601175980193233,1778601175,979940194,livox_frame,0.0,0.0,0.0,1.0,-0.0048994701355695724,-0.005756606347858906,-0.003853832371532917,-0.006251734681427479,0.005045158322900534,1.0061367750167847
1778601175986055743,1778601175,985699537,livox_frame,0.0,0.0,0.0,1.0,-0.011291056871414185,0.002765510231256485,-0.001723303459584713,0.0010724839521571994,-0.004964607302099466,0.9787930250167847
1778601175990126853,1778601175,989791957,livox_frame,0.0,0.0,0.0,1.0,-0.011291056871414185,0.002765510231256485,-0.001723303459584713,0.0010724839521571994,-0.004964607302099466,0.9787930250167847
1778601175995946923,1778601175,995685932,livox_frame,0.0,0.0,0.0,1.0,-0.0006384104490280151,-0.005756606347858906,-0.003853832371532917,-0.008693140931427479,-0.010335700586438179,0.9729336500167847
1778601176000209237,1778601175,999865118,livox_frame,0.0,0.0,0.0,1.0,-0.0006384104490280151,-0.005756606347858906,-0.003853832371532917,-0.008693140931427479,-0.010335700586438179,0.9729336500167847
1778601176006085903,1778601176,5678870,livox_frame,0.0,0.0,0.0,1.0,-0.003834204748272896,-0.005756606347858906,-0.003853832371532917,-0.008937281556427479,-0.006917732302099466,0.9848965406417847
1778601176010087998,1778601176,9816007,livox_frame,0.0,0.0,0.0,1.0,-0.003834204748272896,-0.005756606347858906,-0.003853832371532917,-0.008937281556427479,-0.006917732302099466,0.9848965406417847
1778601176016182486,1778601176,15698003,livox_frame,0.0,0.0,0.0,1.0,-0.010225791484117508,-0.0036260774359107018,-0.003853832371532917,-0.00014821917284280062,0.0021154708229005337,1.0071133375167847
1778601176020565245,1778601176,20144987,livox_frame,0.0,0.0,0.0,1.0,-0.010225791484117508,-0.0036260774359107018,-0.003853832371532917,-0.00014821917284280062,0.0021154708229005337,1.0071133375167847
1778601176025873010,1778601176,25542801,livox_frame,0.0,0.0,0.0,1.0,-0.008095262572169304,0.0006349813193082809,-0.002788567915558815,0.0003400620771571994,-0.014241950586438179,0.9709805250167847
1778601176030134856,1778601176,29885515,livox_frame,0.0,0.0,0.0,1.0,-0.008095262572169304,0.0006349813193082809,-0.002788567915558815,0.0003400620771571994,-0.014241950586438179,0.9709805250167847
1778601176036113819,1778601176,35682156,livox_frame,0.0,0.0,0.0,1.0,0.003622647374868393,-0.004691341891884804,-0.003853832371532917,-0.005519312806427479,-0.012044684961438179,0.9807461500167847
1778601176040391223,1778601176,39941612,livox_frame,0.0,0.0,0.0,1.0,0.003622647374868393,-0.004691341891884804,-0.003853832371532917,-0.005519312806427479,-0.012044684961438179,0.9807461500167847
1778601176046057177,1778601176,45521351,livox_frame,0.0,0.0,0.0,1.0,-0.00916052795946598,-0.004691341891884804,-0.002788567915558815,-0.005519312806427479,0.010904533788561821,1.0100430250167847
1778601176050175076,1778601176,49854011,livox_frame,0.0,0.0,0.0,1.0,-0.00916052795946598,-0.004691341891884804,-0.002788567915558815,-0.005519312806427479,0.010904533788561821,1.0100430250167847
1778601176055934881,1778601176,55669894,livox_frame,0.0,0.0,0.0,1.0,-0.010225791484117508,0.0017002448439598083,-0.003853832371532917,-0.0013689222978428006,-0.015218513086438179,0.9651211500167847
1778601176060240842,1778601176,59971691,livox_frame,0.0,0.0,0.0,1.0,-0.010225791484117508,0.0017002448439598083,-0.003853832371532917,-0.0013689222978428006,-0.015218513086438179,0.9651211500167847
1778601176065916009,1778601176,65689194,livox_frame,0.0,0.0,0.0,1.0,0.00042685121297836304,-0.0004302840679883957,-0.003853832371532917,-0.002589625306427479,-0.013753669336438179,0.9717129468917847
1778601176070039177,1778601176,69802689,livox_frame,0.0,0.0,0.0,1.0,0.00042685121297836304,-0.0004302840679883957,-0.003853832371532917,-0.002589625306427479,-0.013753669336438179,0.9717129468917847
1778601176075968812,1778601176,75669989,livox_frame,0.0,0.0,0.0,1.0,-0.0027689412236213684,-0.006821870803833008,-0.002788567915558815,-0.006984156556427479,0.0008947676979005337,1.0068691968917847
1778601176080216551,1778601176,79978069,livox_frame,0.0,0.0,0.0,1.0,-0.010225791484117508,-0.004691341891884804,-0.002788567915558815,-0.006495875306427479,0.010172111913561821,1.0085781812667847
1778601176085878979,1778601176,85684796,livox_frame,0.0,0.0,0.0,1.0,-0.013421585783362389,0.0038307737559080124,-0.002788567915558815,9.592145215719938e-05,-0.0025232010520994663,0.9831875562667847
1778601176090025909,1778601176,89827373,livox_frame,0.0,0.0,0.0,1.0,-0.013421585783362389,0.0038307737559080124,-0.002788567915558815,9.592145215719938e-05,-0.0025232010520994663,0.9831875562667847
1778601176095951969,1778601176,95666173,livox_frame,0.0,0.0,0.0,1.0,-0.0048994701355695724,-0.0036260774359107018,-0.003853832371532917,-0.005763453431427479,-0.011800544336438179,0.9726895093917847
1778601176100215521,1778601176,99906092,livox_frame,0.0,0.0,0.0,1.0,0.00042685121297836304,-0.0025608129799365997,-0.003853832371532917,-0.0013689222978428006,-0.008382575586438179,0.9931973218917847
1778601176106285263,1778601176,105665432,livox_frame,0.0,0.0,0.0,1.0,-0.003834204748272896,-0.005756606347858906,-0.002788567915558815,-0.009669703431427479,-0.0015466385520994663,0.9897793531417847
1778601176110051496,1778601176,109934055,livox_frame,0.0,0.0,0.0,1.0,-0.0059647336602211,-0.006821870803833008,-0.004919096827507019,-0.005275172181427479,0.00016234582290053368,1.0061367750167847
1778601176115798933,1778601176,115688984,livox_frame,0.0,0.0,0.0,1.0,-0.010225791484117508,-0.0014955485239624977,-0.003853832371532917,-0.002345484681427479,0.0035803145729005337,1.0100430250167847
1778601176120272459,1778601176,120131177,livox_frame,0.0,0.0,0.0,1.0,-0.014486849308013916,-0.0004302840679883957,-0.002788567915558815,-0.003322047181427479,-0.0015466385520994663,0.9873379468917847
1778601176125818718,1778601176,125664416,livox_frame,0.0,0.0,0.0,1.0,-0.010225791484117508,-0.0004302840679883957,-0.002788567915558815,-0.003322047181427479,-0.011800544336438179,0.9690274000167847
1778601176130156757,1778601176,129899824,livox_frame,0.0,0.0,0.0,1.0,-0.0017036758363246918,-0.0014955485239624977,-0.003853832371532917,0.0003400620771571994,-0.01765991933643818,0.9695156812667847
1778601176136039488,1778601176,135684310,livox_frame,0.0,0.0,0.0,1.0,0.003622647374868393,-0.0004302840679883957,-0.001723303459584713,-0.004542750306427479,-0.01595093496143818,0.9743984937667847
1778601176140146918,1778601176,139982615,livox_frame,0.0,0.0,0.0,1.0,-0.0017036758363246918,-0.008952399715781212,-0.004919096827507019,-0.009913844056427479,-0.0025232010520994663,1.0000332593917847
1778601176145951054,1778601176,145821970,livox_frame,0.0,0.0,0.0,1.0,-0.0070299990475177765,-0.00788713525980711,-0.003853832371532917,-0.005763453431427479,0.012369377538561821,1.0188320875167847
1778601176149810679,1778601176,149766358,livox_frame,0.0,0.0,0.0,1.0,-0.01661737821996212,-0.0025608129799365997,-0.003853832371532917,-0.002589625306427479,0.007242423947900534,1.0002774000167847
1778601176155763778,1778601176,155672533,livox_frame,0.0,0.0,0.0,1.0,-0.013421585783362389,0.002765510231256485,-0.002788567915558815,-0.0008806410478428006,-0.013021247461438179,0.9722012281417847
1778601176160127201,1778601176,159971294,livox_frame,0.0,0.0,0.0,1.0,-0.0027689412236213684,0.002765510231256485,-0.002788567915558815,-0.0003923597978428006,-0.02034546621143818,0.9582852125167847
1778601176165852109,1778601176,165685169,livox_frame,0.0,0.0,0.0,1.0,-0.0006384104490280151,-0.0014955485239624977,-0.002788567915558815,-0.002589625306427479,-0.014730231836438179,0.9724453687667847
1778601176169987937,1778601176,169817445,livox_frame,0.0,0.0,0.0,1.0,0.0014921166002750397,-0.0036260774359107018,-0.003853832371532917,-0.005519312806427479,-0.007406013552099466,0.9848965406417847
1778601176175806006,1778601176,175670839,livox_frame,0.0,0.0,0.0,1.0,-0.0017036758363246918,-0.00788713525980711,-0.002788567915558815,-0.007472437806427479,-0.0005700760520994663,1.0005215406417847
1778601176180016085,1778601176,179959609,livox_frame,0.0,0.0,0.0,1.0,-0.011291056871414185,-0.005756606347858906,-0.003853832371532917,-0.005275172181427479,0.006265861447900534,1.0076016187667847
1778601176185843638,1778601176,185714922,livox_frame,0.0,0.0,0.0,1.0,-0.011291056871414185,-0.0004302840679883957,-0.002788567915558815,0.0003400620771571994,-0.0005700760520994663,0.9907559156417847
1778601176190071112,1778601176,189915790,livox_frame,0.0,0.0,0.0,1.0,-0.00916052795946598,0.002765510231256485,-0.001723303459584713,-0.002833765931427479,-0.015462653711438179,0.9646328687667847
1778601176195906598,1778601176,195672101,livox_frame,0.0,0.0,0.0,1.0,-0.0048994701355695724,-0.004691341891884804,-0.002788567915558815,-0.004542750306427479,-0.01668335683643818,0.9802578687667847
1778601176200163576,1778601176,199846347,livox_frame,0.0,0.0,0.0,1.0,0.003622647374868393,-0.0014955485239624977,-0.003853832371532917,-0.003810328431427479,-0.010335700586438179,0.9836758375167847
1778601176205874351,1778601176,205669736,livox_frame,0.0,0.0,0.0,1.0,-0.0006384104490280151,-0.00788713525980711,-0.002788567915558815,-0.008204859681427479,0.00016234582290053368,0.9897793531417847
1778601176210294325,1778601176,209935207,livox_frame,0.0,0.0,0.0,1.0,-0.008095262572169304,-0.0036260774359107018,-0.001723303459584713,-0.005763453431427479,0.0013830489479005337,1.0046719312667847
1778601176215810458,1778601176,215689877,livox_frame,0.0,0.0,0.0,1.0,-0.008095262572169304,-0.004691341891884804,-0.002788567915558815,-0.002345484681427479,-0.0010583573020994663,1.0014981031417847
1778601176220429749,1778601176,220119540,livox_frame,0.0,0.0,0.0,1.0,-0.014486849308013916,0.0017002448439598083,-0.002788567915558815,-0.003322047181427479,-0.0003259354270994663,0.9878262281417847
1778601176226008682,1778601176,225691564,livox_frame,0.0,0.0,0.0,1.0,-0.010225791484117508,0.0017002448439598083,-0.003853832371532917,-0.00014821917284280062,-0.012044684961438179,0.9717129468917847
1778601176230071309,1778601176,229790723,livox_frame,0.0,0.0,0.0,1.0,-0.0059647336602211,-0.0004302840679883957,-0.004919096827507019,-0.003322047181427479,-0.01668335683643818,0.9717129468917847
1778601176235893729,1778601176,235672314,livox_frame,0.0,0.0,0.0,1.0,0.00042685121297836304,-0.0025608129799365997,-0.003853832371532917,-0.003322047181427479,-0.012288825586438179,0.9824551343917847
1778601176240231627,1778601176,239998320,livox_frame,0.0,0.0,0.0,1.0,-0.0006384104490280151,-0.005756606347858906,-0.002788567915558815,-0.007472437806427479,-0.004720466677099466,0.9907559156417847
1778601176245773286,1778601176,245664057,livox_frame,0.0,0.0,0.0,1.0,-0.0070299990475177765,-0.010017664171755314,-0.002788567915558815,-0.006251734681427479,0.004068595822900534,1.0095547437667847
1778601176250359991,1778601176,250008594,livox_frame,0.0,0.0,0.0,1.0,-0.010225791484117508,-0.0025608129799365997,-0.002788567915558815,-0.0018572035478428006,0.0035803145729005337,1.0068691968917847
1778601176256085009,1778601176,255687564,livox_frame,0.0,0.0,0.0,1.0,-0.014486849308013916,0.0017002448439598083,-0.002788567915558815,-0.003810328431427479,-0.004232185427099466,0.9792813062667847
1778601176260181291,1778601176,259804781,livox_frame,0.0,0.0,0.0,1.0,-0.0048994701355695724,0.0006349813193082809,-0.003853832371532917,-0.0013689222978428006,-0.01595093496143818,0.9687832593917847
1778601176266036701,1778601176,265661975,livox_frame,0.0,0.0,0.0,1.0,-0.0006384104490280151,0.0006349813193082809,-0.003853832371532917,-0.0008806410478428006,-0.01717163808643818,0.9656094312667847
1778601176270159772,1778601176,269906016,livox_frame,0.0,0.0,0.0,1.0,0.0025573819875717163,-0.0036260774359107018,-0.003853832371532917,-0.004786890931427479,-0.012288825586438179,0.9787930250167847
1778601176275898507,1778601176,275662775,livox_frame,0.0,0.0,0.0,1.0,-0.0017036758363246918,-0.006821870803833008,-0.002788567915558815,-0.005763453431427479,-0.0030114823020994663,0.9990566968917847
1778601176280255293,1778601176,279952408,livox_frame,0.0,0.0,0.0,1.0,-0.0070299990475177765,-0.005756606347858906,-0.003853832371532917,-0.005031031556427479,0.006998283322900534,1.0115078687667847
1778601176286019674,1778601176,285661781,livox_frame,0.0,0.0,0.0,1.0,-0.01661737821996212,0.0017002448439598083,-0.001723303459584713,-0.0018572035478428006,0.004801017697900534,0.9900234937667847
1778601176290247450,1778601176,289932773,livox_frame,0.0,0.0,0.0,1.0,-0.00916052795946598,0.002765510231256485,-0.000658039003610611,-0.0016130629228428006,-0.01912476308643818,0.9685391187667847
1778601176296074108,1778601176,295740776,livox_frame,0.0,0.0,0.0,1.0,-0.0017036758363246918,-0.0036260774359107018,-0.002788567915558815,-0.005275172181427479,-0.015218513086438179,0.9734219312667847
1778601176300031511,1778601176,299728270,livox_frame,0.0,0.0,0.0,1.0,-0.0006384104490280151,-0.0014955485239624977,-0.002788567915558815,-0.0011247816728428006,-0.009359138086438179,0.9814785718917847
1778601176305944141,1778601176,305661527,livox_frame,0.0,0.0,0.0,1.0,-0.0027689412236213684,-0.005756606347858906,-0.001723303459584713,-0.008204859681427479,-0.0030114823020994663,0.9844082593917847
1778601176310505561,1778601176,310109472,livox_frame,0.0,0.0,0.0,1.0,-0.003834204748272896,-0.00788713525980711,-0.003853832371532917,-0.003810328431427479,-0.0034997635520994663,1.0056484937667847
1778601176315915480,1778601176,315690596,livox_frame,0.0,0.0,0.0,1.0,-0.010225791484117508,-0.005756606347858906,-0.002788567915558815,-0.005275172181427479,0.007486564572900534,1.0083340406417847
1778601176320393699,1778601176,320007387,livox_frame,0.0,0.0,0.0,1.0,-0.01661737821996212,0.0006349813193082809,-0.002788567915558815,-0.002101344056427479,0.004068595822900534,0.9990566968917847
1778601176326082659,1778601176,325753283,livox_frame,0.0,0.0,0.0,1.0,-0.008095262572169304,-0.0004302840679883957,-0.003853832371532917,-0.002833765931427479,-0.010823981836438179,0.9734219312667847
1778601176330162931,1778601176,329764841,livox_frame,0.0,0.0,0.0,1.0,-0.003834204748272896,0.0017002448439598083,-0.002788567915558815,0.0013166245771571994,-0.014974372461438179,0.9639004468917847
1778601176336033168,1778601176,335666220,livox_frame,0.0,0.0,0.0,1.0,0.00042685121297836304,-0.0014955485239624977,-0.002788567915558815,-0.003322047181427479,-0.01863648183643818,0.9682949781417847
1778601176340263668,1778601176,339894102,livox_frame,0.0,0.0,0.0,1.0,0.003622647374868393,-0.004691341891884804,-0.002788567915558815,-0.005275172181427479,-0.010335700586438179,0.9917324781417847
1778601176345974820,1778601176,345667668,livox_frame,0.0,0.0,0.0,1.0,-0.0048994701355695724,-0.00788713525980711,-0.002788567915558815,-0.007472437806427479,0.009439690038561821,1.0129727125167847
1778601176350164254,1778601176,349914154,livox_frame,0.0,0.0,0.0,1.0,-0.013421585783362389,-0.0036260774359107018,-0.003853832371532917,-0.003566187806427479,0.011881096288561821,1.0127285718917847
1778601176355986225,1778601176,355690422,livox_frame,0.0,0.0,0.0,1.0,-0.013421585783362389,0.0017002448439598083,-0.002788567915558815,-0.0011247816728428006,-0.004476326052099466,0.9868496656417847
1778601176360082121,1778601176,359781111,livox_frame,0.0,0.0,0.0,1.0,-0.010225791484117508,0.002765510231256485,-0.002788567915558815,-0.0011247816728428006,-0.01765991933643818,0.9599941968917847
1778601176365880581,1778601176,365666907,livox_frame,0.0,0.0,0.0,1.0,-0.0017036758363246918,0.0006349813193082809,-0.003853832371532917,-0.002345484681427479,-0.02010132558643818,0.9641445875167847
1778601176370296345,1778601176,369966726,livox_frame,0.0,0.0,0.0,1.0,0.0025573819875717163,-0.0004302840679883957,-0.003853832371532917,-0.003322047181427479,-0.011312263086438179,0.9787930250167847
1778601176376147664,1778601176,375845604,livox_frame,0.0,0.0,0.0,1.0,-0.0017036758363246918,-0.006821870803833008,-0.003853832371532917,-0.007228297181427479,-0.003988044802099466,0.9912441968917847
1778601176380151264,1778601176,379848767,livox_frame,0.0,0.0,0.0,1.0,-0.0059647336602211,-0.00788713525980711,-0.002788567915558815,-0.005275172181427479,0.0026037520729005337,1.0115078687667847
1778601176386036310,1778601176,385673369,livox_frame,0.0,0.0,0.0,1.0,-0.013421585783362389,-0.0025608129799365997,-0.002788567915558815,-0.003322047181427479,0.007974846288561821,1.0019863843917847
1778601176390215211,1778601176,389942837,livox_frame,0.0,0.0,0.0,1.0,-0.010225791484117508,0.004896039143204689,-0.001723303459584713,0.0018049058271571994,-0.011312263086438179,0.9717129468917847
1778601176396057159,1778601176,395663368,livox_frame,0.0,0.0,0.0,1.0,-0.0048994701355695724,-0.0014955485239624977,-0.002788567915558815,-0.009181422181427479,-0.02156616933643818,0.9607266187667847
1778601176400198780,1778601176,399895170,livox_frame,0.0,0.0,0.0,1.0,-0.0017036758363246918,-0.0025608129799365997,-0.001723303459584713,0.002781468443572521,-0.006673591677099466,0.9880703687667847
1778601176405892270,1778601176,405682039,livox_frame,0.0,0.0,0.0,1.0,-0.0027689412236213684,-0.0014955485239624977,-0.003853832371532917,-0.007228297181427479,-0.009603278711438179,0.9802578687667847
1778601176410117921,1778601176,409959381,livox_frame,0.0,0.0,0.0,1.0,-0.0017036758363246918,-0.008952399715781212,-0.003853832371532917,-0.008204859681427479,-0.0034997635520994663,0.9978359937667847
1778601176416045645,1778601176,415687742,livox_frame,0.0,0.0,0.0,1.0,-0.010225791484117508,-0.005756606347858906,-0.002788567915558815,-0.004542750306427479,0.005777580197900534,1.0129727125167847
1778601176420701167,1778601176,420176168,livox_frame,0.0,0.0,0.0,1.0,-0.013421585783362389,-0.0004302840679883957,-0.002788567915558815,-0.0008806410478428006,0.005045158322900534,1.0071133375167847
1778601176425970873,1778601176,425687885,livox_frame,0.0,0.0,0.0,1.0,-0.012356320396065712,0.0017002448439598083,-0.002788567915558815,-0.005031031556427479,-0.004476326052099466,0.9743984937667847
1778601176429908001,1778601176,429715663,livox_frame,0.0,0.0,0.0,1.0,-0.008095262572169304,-0.0004302840679883957,-0.002788567915558815,-0.00014821917284280062,-0.01717163808643818,0.9682949781417847
1778601176435893509,1778601176,435662868,livox_frame,0.0,0.0,0.0,1.0,0.00042685121297836304,0.0017002448439598083,-0.002788567915558815,0.0008283433271571994,-0.01839234121143818,0.9709805250167847
1778601176440410155,1778601176,440034831,livox_frame,0.0,0.0,0.0,1.0,0.0025573819875717163,-0.004691341891884804,-0.002788567915558815,-0.007716578431427479,-0.010823981836438179,0.9809902906417847
1778601176446048832,1778601176,445661016,livox_frame,0.0,0.0,0.0,1.0,-0.003834204748272896,-0.010017664171755314,-0.003853832371532917,-0.008693140931427479,0.0038244551979005337,1.0080899000167847
1778601176450388228,1778601176,449978105,livox_frame,0.0,0.0,0.0,1.0,-0.011291056871414185,-0.006821870803833008,-0.003853832371532917,-0.004542750306427479,0.011392815038561821,1.0178555250167847
1778601176456104469,1778601176,455667346,livox_frame,0.0,0.0,0.0,1.0,-0.017682643607258797,0.0017002448439598083,-0.002788567915558815,-0.0013689222978428006,0.0008947676979005337,0.9910000562667847
1778601176460344421,1778601176,459938872,livox_frame,0.0,0.0,0.0,1.0,-0.011291056871414185,0.002765510231256485,-0.002788567915558815,-0.0016130629228428006,-0.01643921621143818,0.9624356031417847
1778601176465900196,1778601176,465495508,livox_frame,0.0,0.0,0.0,1.0,-0.0006384104490280151,0.0017002448439598083,-0.002788567915558815,-0.0003923597978428006,-0.01961304433643818,0.9617031812667847
1778601176470123289,1778601176,469894025,livox_frame,0.0,0.0,0.0,1.0,0.0014921166002750397,-0.0025608129799365997,-0.002788567915558815,-0.003322047181427479,-0.011312263086438179,0.9778164625167847
1778601176475937051,1778601176,475670921,livox_frame,0.0,0.0,0.0,1.0,0.0014921166002750397,-0.004691341891884804,-0.003853832371532917,-0.004786890931427479,-0.004720466677099466,0.9912441968917847
1778601176480227573,1778601176,479892987,livox_frame,0.0,0.0,0.0,1.0,-0.0059647336602211,-0.00788713525980711,-0.002788567915558815,-0.006740015931427479,0.0023596114479005337,1.0032070875167847
1778601176486050825,1778601176,485693110,livox_frame,0.0,0.0,0.0,1.0,-0.012356320396065712,-0.005756606347858906,-0.003853832371532917,-0.003810328431427479,0.005045158322900534,1.0054043531417847
1778601176490324801,1778601176,489934120,livox_frame,0.0,0.0,0.0,1.0,-0.010225791484117508,0.0006349813193082809,-0.001723303459584713,9.592145215719938e-05,-0.005452888552099466,0.9853848218917847
1778601176496084040,1778601176,495660125,livox_frame,0.0,0.0,0.0,1.0,-0.0048994701355695724,0.005961302667856216,-0.002788567915558815,-0.0013689222978428006,-0.01839234121143818,0.9602383375167847
1778601176500281298,1778601176,499932671,livox_frame,0.0,0.0,0.0,1.0,-0.0017036758363246918,-0.005756606347858906,-0.002788567915558815,-0.009181422181427479,-0.014730231836438179,0.9709805250167847
1778601176506004907,1778601176,505771774,livox_frame,0.0,0.0,0.0,1.0,0.00042685121297836304,-0.0014955485239624977,-0.003853832371532917,0.0018049058271571994,-0.0032556229270994663,0.9978359937667847
1778601176510076136,1778601176,509745258,livox_frame,0.0,0.0,0.0,1.0,-0.003834204748272896,-0.006821870803833008,-0.002788567915558815,-0.011622828431427479,-0.005452888552099466,0.9848965406417847
1778601176515993305,1778601176,515693987,livox_frame,0.0,0.0,0.0,1.0,-0.0048994701355695724,-0.00788713525980711,-0.003853832371532917,-0.004542750306427479,0.0013830489479005337,1.0105313062667847
1778601176520326134,1778601176,519960282,livox_frame,0.0,0.0,0.0,1.0,-0.011291056871414185,-0.0036260774359107018,-0.002788567915558815,-0.002345484681427479,0.006265861447900534,1.0073574781417847
1778601176525994623,1778601176,525726457,livox_frame,0.0,0.0,0.0,1.0,-0.015552114695310593,0.0017002448439598083,-0.001723303459584713,-0.002345484681427479,-0.0027673416770994663,0.9834316968917847
1778601176530019888,1778601176,529803408,livox_frame,0.0,0.0,0.0,1.0,-0.00916052795946598,0.0006349813193082809,-0.001723303459584713,-0.002833765931427479,-0.015218513086438179,0.9670742750167847
1778601176535784021,1778601176,535671329,livox_frame,0.0,0.0,0.0,1.0,-0.0017036758363246918,-0.0014955485239624977,-0.003853832371532917,-0.0006365004228428006,-0.01985718496143818,0.9675625562667847
1778601176540130413,1778601176,539920217,livox_frame,0.0,0.0,0.0,1.0,0.003622647374868393,-0.0014955485239624977,-0.002788567915558815,-0.004786890931427479,-0.014486091211438179,0.9758633375167847
1778601176545834060,1778601176,545663660,livox_frame,0.0,0.0,0.0,1.0,0.00042685121297836304,-0.010017664171755314,-0.002788567915558815,-0.009425562806427479,-0.0037439041770994663,1.0019863843917847
1778601176549981643,1778601176,549802857,livox_frame,0.0,0.0,0.0,1.0,-0.00916052795946598,-0.00788713525980711,-0.002788567915558815,-0.005275172181427479,0.012857658788561821,1.0198086500167847
1778601176555870903,1778601176,555671506,livox_frame,0.0,0.0,0.0,1.0,-0.01661737821996212,0.0006349813193082809,-0.002788567915558815,-0.002589625306427479,0.004556877072900534,0.9993008375167847
1778601176560163408,1778601176,560024672,livox_frame,0.0,0.0,0.0,1.0,-0.013421585783362389,0.0017002448439598083,-0.002788567915558815,-0.0003923597978428006,-0.012532966211438179,0.9685391187667847
1778601176565785171,1778601176,565682734,livox_frame,0.0,0.0,0.0,1.0,-0.0059647336602211,0.002765510231256485,-0.003853832371532917,-0.0006365004228428006,-0.02181030996143818,0.9612149000167847
1778601176569903593,1778601176,569751915,livox_frame,0.0,0.0,0.0,1.0,0.0014921166002750397,-0.0025608129799365997,-0.003853832371532917,-0.002345484681427479,-0.015218513086438179,0.9712246656417847
1778601176575843179,1778601176,575658129,livox_frame,0.0,0.0,0.0,1.0,0.0014921166002750397,-0.004691341891884804,-0.002788567915558815,-0.006740015931427479,-0.005941169802099466,0.9861172437667847
1778601176580095418,1778601176,579934048,livox_frame,0.0,0.0,0.0,1.0,-0.0070299990475177765,-0.00788713525980711,-0.003853832371532917,-0.006251734681427479,0.0008947676979005337,1.0041836500167847
1778601176585867274,1778601176,585674861,livox_frame,0.0,0.0,0.0,1.0,-0.010225791484117508,-0.004691341891884804,-0.003853832371532917,-0.003322047181427479,0.005045158322900534,1.0095547437667847
1778601176589913799,1778601176,589824130,livox_frame,0.0,0.0,0.0,1.0,-0.014486849308013916,0.002765510231256485,-0.002788567915558815,-0.0011247816728428006,0.0008947676979005337,0.9790371656417847
1778601176595762165,1778601176,595659372,livox_frame,0.0,0.0,0.0,1.0,-0.0070299990475177765,0.002765510231256485,-0.002788567915558815,-0.0018572035478428006,-0.02229859121143818,0.9624356031417847
1778601176600013642,1778601176,599926028,livox_frame,0.0,0.0,0.0,1.0,-0.0006384104490280151,-0.004691341891884804,-0.003853832371532917,-0.003322047181427479,-0.013509528711438179,0.9785488843917847
1778601176605855720,1778601176,605658940,livox_frame,0.0,0.0,0.0,1.0,-0.0017036758363246918,-0.0004302840679883957,-0.003853832371532917,-0.003322047181427479,-0.008870856836438179,0.9839199781417847
1778601176610019176,1778601176,609809110,livox_frame,0.0,0.0,0.0,1.0,-0.0027689412236213684,-0.005756606347858906,-0.002788567915558815,-0.007960719056427479,-0.0027673416770994663,0.9936856031417847
1778601176615868257,1778601176,615683571,livox_frame,0.0,0.0,0.0,1.0,-0.0059647336602211,-0.006821870803833008,-0.002788567915558815,-0.004786890931427479,0.0008947676979005337,1.0073574781417847
1778601176620262952,1778601176,620063987,livox_frame,0.0,0.0,0.0,1.0,-0.012356320396065712,-0.004691341891884804,-0.002788567915558815,-0.002589625306427479,0.006510002072900534,1.0095547437667847
1778601176625719806,1778601176,625507732,livox_frame,0.0,0.0,0.0,1.0,-0.014486849308013916,0.0006349813193082809,-0.002788567915558815,-0.002345484681427479,-0.0005700760520994663,0.9873379468917847
1778601176630054238,1778601176,629889327,livox_frame,0.0,0.0,0.0,1.0,-0.010225791484117508,-0.0004302840679883957,-0.002788567915558815,-0.0011247816728428006,-0.013997809961438179,0.9702481031417847
1778601176635908654,1778601176,635663612,livox_frame,0.0,0.0,0.0,1.0,-0.0006384104490280151,0.0006349813193082809,-0.003853832371532917,-0.0006365004228428006,-0.01790405996143818,0.9631680250167847
1778601176640200013,1778601176,639959264,livox_frame,0.0,0.0,0.0,1.0,0.0014921166002750397,-0.0036260774359107018,-0.002788567915558815,-0.004298609681427479,-0.015218513086438179,0.9731777906417847
1778601176645845247,1778601176,645674433,livox_frame,0.0,0.0,0.0,1.0,0.0025573819875717163,-0.005756606347858906,-0.003853832371532917,-0.006740015931427479,-0.005941169802099466,0.9993008375167847
1778601176650053057,1778601176,649841341,livox_frame,0.0,0.0,0.0,1.0,-0.008095262572169304,-0.008952399715781212,-0.002788567915558815,-0.008449000306427479,0.012369377538561821,1.0173672437667847
1778601176655845917,1778601176,655659667,livox_frame,0.0,0.0,0.0,1.0,-0.01661737821996212,-0.0004302840679883957,-0.002788567915558815,-0.003810328431427479,0.007974846288561821,1.0032070875167847
1778601176660314803,1778601176,660031158,livox_frame,0.0,0.0,0.0,1.0,-0.012356320396065712,0.004896039143204689,-0.001723303459584713,0.0010724839521571994,-0.010823981836438179,0.9748867750167847
1778601176665931841,1778601176,665659318,livox_frame,0.0,0.0,0.0,1.0,-0.0070299990475177765,0.0006349813193082809,-0.002788567915558815,-0.002833765931427479,-0.02034546621143818,0.9595059156417847
1778601176670280167,1778601176,669964419,livox_frame,0.0,0.0,0.0,1.0,-0.0027689412236213684,0.0017002448439598083,-0.003853832371532917,-0.0018572035478428006,-0.015218513086438179,0.9712246656417847
1778601176676052000,1778601176,675759572,livox_frame,0.0,0.0,0.0,1.0,0.0025573819875717163,-0.0025608129799365997,-0.003853832371532917,-0.006740015931427479,-0.008138434961438179,0.9829434156417847
1778601176680062143,1778601176,679824835,livox_frame,0.0,0.0,0.0,1.0,-0.003834204748272896,-0.00788713525980711,-0.002788567915558815,-0.006495875306427479,-0.0027673416770994663,0.9988125562667847
1778601176685979460,1778601176,685654403,livox_frame,0.0,0.0,0.0,1.0,-0.00916052795946598,-0.006821870803833008,-0.002788567915558815,-0.006007594056427479,0.005045158322900534,1.0124844312667847
1778601176690170126,1778601176,689898996,livox_frame,0.0,0.0,0.0,1.0,-0.013421585783362389,-0.0014955485239624977,-0.002788567915558815,-0.003077906556427479,0.004068595822900534,0.9958828687667847
1778601176695767498,1778601176,695657200,livox_frame,0.0,0.0,0.0,1.0,-0.0070299990475177765,0.005961302667856216,-0.002788567915558815,0.0015607652021571994,-0.01668335683643818,0.9643887281417847
1778601176700007499,1778601176,699858577,livox_frame,0.0,0.0,0.0,1.0,-0.0017036758363246918,-0.004691341891884804,-0.003853832371532917,-0.009669703431427479,-0.02107788808643818,0.9604824781417847
1778601176705907281,1778601176,705667143,livox_frame,0.0,0.0,0.0,1.0,-0.0017036758363246918,-0.0036260774359107018,-0.002788567915558815,0.004002171568572521,-0.0034997635520994663,0.9922207593917847
1778601176710170401,1778601176,709866677,livox_frame,0.0,0.0,0.0,1.0,-0.0017036758363246918,-0.0036260774359107018,-0.002788567915558815,-0.008449000306427479,-0.009359138086438179,0.9848965406417847
1778601176715848289,1778601176,715684301,livox_frame,0.0,0.0,0.0,1.0,-0.0027689412236213684,-0.010017664171755314,-0.002788567915558815,-0.006251734681427479,-0.0005700760520994663,1.0044277906417847
1778601176720254951,1778601176,720106941,livox_frame,0.0,0.0,0.0,1.0,-0.011291056871414185,-0.005756606347858906,-0.003853832371532917,-0.002833765931427479,0.006998283322900534,1.0124844312667847
1778601176725681982,1778601176,725529927,livox_frame,0.0,0.0,0.0,1.0,-0.013421585783362389,0.0006349813193082809,-0.002788567915558815,-0.0008806410478428006,0.0018713301979005337,0.9990566968917847
1778601176729934021,1778601176,729752718,livox_frame,0.0,0.0,0.0,1.0,-0.011291056871414185,0.0017002448439598083,-0.001723303459584713,-0.005763453431427479,-0.010823981836438179,0.9656094312667847
1778601176735972378,1778601176,735685059,livox_frame,0.0,0.0,0.0,1.0,-0.0048994701355695724,-0.0014955485239624977,-0.001723303459584713,-0.0003923597978428006,-0.01717163808643818,0.9680508375167847
1778601176740295278,1778601176,739987846,livox_frame,0.0,0.0,0.0,1.0,0.0014921166002750397,0.0017002448439598083,-0.002788567915558815,-0.0008806410478428006,-0.01790405996143818,0.9729336500167847
1778601176745958954,1778601176,745656323,livox_frame,0.0,0.0,0.0,1.0,0.003622647374868393,-0.005756606347858906,-0.002788567915558815,-0.006984156556427479,-0.006917732302099466,0.9883145093917847
1778601176750057401,1778601176,749856074,livox_frame,0.0,0.0,0.0,1.0,-0.008095262572169304,-0.011082928627729416,-0.002788567915558815,-0.008693140931427479,0.008463127538561821,1.0134609937667847
1778601176755763478,1778601176,755659356,livox_frame,0.0,0.0,0.0,1.0,-0.013421585783362389,-0.0025608129799365997,-0.003853832371532917,-0.0016130629228428006,0.008218986913561821,1.0119961500167847
1778601176760267103,1778601176,760132371,livox_frame,0.0,0.0,0.0,1.0,-0.015552114695310593,0.002765510231256485,-0.002788567915558815,-0.0003923597978428006,-0.003988044802099466,0.9836758375167847
1778601176765729124,1778601176,765500862,livox_frame,0.0,0.0,0.0,1.0,-0.00916052795946598,-0.0004302840679883957,-0.003853832371532917,-0.003322047181427479,-0.01985718496143818,0.9548672437667847
1778601176770092302,1778601176,769907414,livox_frame,0.0,0.0,0.0,1.0,0.00042685121297836304,0.0006349813193082809,-0.003853832371532917,0.0003400620771571994,-0.01814820058643818,0.9719570875167847
1778601176775935207,1778601176,775653676,livox_frame,0.0,0.0,0.0,1.0,0.0025573819875717163,-0.0025608129799365997,-0.002788567915558815,-0.004786890931427479,-0.008870856836438179,0.9805020093917847
1778601176780193226,1778601176,779823581,livox_frame,0.0,0.0,0.0,1.0,-0.0017036758363246918,-0.006821870803833008,-0.002788567915558815,-0.007228297181427479,0.0004064864479005337,0.9946621656417847
1778601176785945231,1778601176,785653059,livox_frame,0.0,0.0,0.0,1.0,-0.00916052795946598,-0.008952399715781212,-0.002788567915558815,-0.005519312806427479,0.0028478926979005337,1.0080899000167847
1778601176790138413,1778601176,789998480,livox_frame,0.0,0.0,0.0,1.0,-0.010225791484117508,-0.0025608129799365997,-0.002788567915558815,-0.0008806410478428006,0.0021154708229005337,0.9985684156417847
1778601176795825401,1778601176,795685465,livox_frame,0.0,0.0,0.0,1.0,-0.00916052795946598,0.005961302667856216,-0.002788567915558815,0.0010724839521571994,-0.009359138086438179,0.9680508375167847
1778601176800044625,1778601176,799830284,livox_frame,0.0,0.0,0.0,1.0,-0.0059647336602211,-0.0014955485239624977,-0.002788567915558815,-0.006984156556427479,-0.02034546621143818,0.9692715406417847
1778601176805845381,1778601176,805659940,livox_frame,0.0,0.0,0.0,1.0,0.00468791276216507,-0.0014955485239624977,-0.003853832371532917,0.0010724839521571994,-0.010335700586438179,0.9863613843917847
1778601176810211640,1778601176,810007736,livox_frame,0.0,0.0,0.0,1.0,-0.003834204748272896,-0.0036260774359107018,-0.002788567915558815,-0.009669703431427479,-0.0017907791770994663,0.9807461500167847
1778601176815787278,1778601176,815678236,livox_frame,0.0,0.0,0.0,1.0,-0.0027689412236213684,-0.006821870803833008,-0.001723303459584713,-0.006251734681427479,-0.004232185427099466,1.0076016187667847
1778601176820151334,1778601176,819992082,livox_frame,0.0,0.0,0.0,1.0,-0.00916052795946598,-0.005756606347858906,-0.001723303459584713,-0.004054469056427479,0.004801017697900534,1.0080899000167847
1778601176825792667,1778601176,825681978,livox_frame,0.0,0.0,0.0,1.0,-0.01661737821996212,0.0006349813193082809,-0.002788567915558815,-0.002589625306427479,0.005533439572900534,1.0022305250167847
1778601176829953239,1778601176,829811629,livox_frame,0.0,0.0,0.0,1.0,-0.012356320396065712,0.0006349813193082809,-0.003853832371532917,-0.004786890931427479,-0.012288825586438179,0.9729336500167847
1778601176835828598,1778601176,835654213,livox_frame,0.0,0.0,0.0,1.0,-0.003834204748272896,0.0017002448439598083,-0.003853832371532917,-0.0003923597978428006,-0.01570679433643818,0.9646328687667847
1778601176840074657,1778601176,839915428,livox_frame,0.0,0.0,0.0,1.0,-0.0006384104490280151,-0.0004302840679883957,-0.004919096827507019,-0.0018572035478428006,-0.01790405996143818,0.9695156812667847
1778601176845803527,1778601176,845661329,livox_frame,0.0,0.0,0.0,1.0,0.00468791276216507,-0.004691341891884804,-0.002788567915558815,-0.004542750306427479,-0.011068122461438179,0.9856289625167847
1778601176850126108,1778601176,850029438,livox_frame,0.0,0.0,0.0,1.0,-0.0027689412236213684,-0.00788713525980711,-0.002788567915558815,-0.007960719056427479,0.0033361739479005337,1.0085781812667847
1778601176855840557,1778601176,855666038,livox_frame,0.0,0.0,0.0,1.0,-0.015552114695310593,-0.004691341891884804,-0.002788567915558815,-0.0013689222978428006,0.014322502538561821,1.0188320875167847
1778601176860041232,1778601176,859786249,livox_frame,0.0,0.0,0.0,1.0,-0.013421585783362389,0.0017002448439598083,-0.002788567915558815,-0.004786890931427479,-0.005697029177099466,0.9897793531417847
1778601176865941305,1778601176,865655567,livox_frame,0.0,0.0,0.0,1.0,-0.00916052795946598,0.0017002448439598083,-0.002788567915558815,-0.0003923597978428006,-0.013753669336438179,0.9636563062667847
1778601176870166650,1778601176,869875645,livox_frame,0.0,0.0,0.0,1.0,-0.0027689412236213684,-0.0004302840679883957,-0.003853832371532917,-0.0016130629228428006,-0.02058960683643818,0.9617031812667847
1778601176876011159,1778601176,875663745,livox_frame,0.0,0.0,0.0,1.0,0.003622647374868393,-0.0014955485239624977,-0.002788567915558815,-0.003810328431427479,-0.012288825586438179,0.9792813062667847
1778601176880222453,1778601176,879947119,livox_frame,0.0,0.0,0.0,1.0,-0.0006384104490280151,-0.004691341891884804,-0.003853832371532917,-0.006251734681427479,-0.0017907791770994663,0.9910000562667847
1778601176885929309,1778601176,885695091,livox_frame,0.0,0.0,0.0,1.0,-0.00916052795946598,-0.00788713525980711,-0.003853832371532917,-0.006251734681427479,0.0038244551979005337,1.0090664625167847
1778601176889915201,1778601176,889743374,livox_frame,0.0,0.0,0.0,1.0,-0.012356320396065712,-0.0014955485239624977,-0.002788567915558815,0.0010724839521571994,0.0035803145729005337,1.0041836500167847
1778601176895967235,1778601176,895655430,livox_frame,0.0,0.0,0.0,1.0,-0.011291056871414185,0.004896039143204689,-0.002788567915558815,-0.0018572035478428006,-0.005452888552099466,0.9690274000167847
1778601176900118843,1778601176,899894756,livox_frame,0.0,0.0,0.0,1.0,-0.008095262572169304,-0.0025608129799365997,-0.002788567915558815,-0.005763453431427479,-0.02278687246143818,0.9621914625167847
1778601176905898518,1778601176,905657075,livox_frame,0.0,0.0,0.0,1.0,0.003622647374868393,-0.004691341891884804,-0.003853832371532917,-0.002589625306427479,-0.010335700586438179,0.9822109937667847
1778601176910326388,1778601176,910015292,livox_frame,0.0,0.0,0.0,1.0,-0.0006384104490280151,-0.0025608129799365997,-0.003853832371532917,-0.003077906556427479,-0.0020349198020994663,0.9927090406417847
1778601176915920576,1778601176,915679764,livox_frame,0.0,0.0,0.0,1.0,-0.0048994701355695724,-0.008952399715781212,-0.003853832371532917,-0.009425562806427479,-0.004964607302099466,0.9958828687667847
